timestamp_ns,imu_ang_vel_x,imu_ang_vel_y,imu_ang_vel_z,imu_lin_acc_x,imu_lin_acc_y,imu_lin_acc_z,gps_lat,gps_lon,gps_alt,gps_vel_x,gps_vel_y,gps_vel_z
1772180345038439000,-0.0003577917523216456,5.34841965418309e-05,2.6714358682511374e-05,-0.07387889921665192,-0.007006864529103041,-9.856725692749023,47.64146799957688,-122.14016500049779,122.24617767333984,0.0,-0.0,0.0
1772180345049258000,-0.0010907516116276383,0.0006299121887423098,-0.00039433923666365445,0.020124729722738266,0.03896608203649521,-9.808176040649414,47.64146799957688,-122.14016500049779,122.24617767333984,0.0,-0.0,0.0
1772180345082425000,0.0004841779882553965,0.000797904678620398,0.0008201415184885263,-0.004707006271928549,-0.005102857947349548,-9.787043571472168,47.64146799957688,-122.14016500049779,122.24617767333984,0.0,-0.0,0.0
1772180345105820000,0.00032039263169281185,-0.0005337038310244679,-0.0003732057230081409,-0.0011686263605952263,-0.02169574238359928,-9.81745719909668,47.64146799957688,-122.14016500049779,122.24617767333984,0.0,-0.0,0.0
1772180345125177000,0.00035478518111631274,-8.373114542337134e-05,0.00030310102738440037,-0.00124002480879426,-0.011806461028754711,-9.800308227539062,47.64146799957688,-122.14016500049779,122.24617767333984,0.0,-0.0,0.0
1772180345144191000,0.0005528339534066617,0.0012034567771479487,-0.0007910524145700037,0.016615621745586395,0.03502579405903816,-9.812214851379395,47.64146799957688,-122.14016500049779,122.24617767333984,0.0,-0.0,0.0
1772180345156355000,0.0006221358780749142,-0.0010749027132987976,-0.0005567842745222151,-0.0011762336362153292,-0.025329625234007835,-9.774295806884766,47.64146799957688,-122.14016500049779,122.24617767333984,0.0,-0.0,0.0
1772180345184162000,1.7313126591034234e-05,0.0007891712011769414,0.0007116937777027488,0.013251828029751778,0.01930207386612892,-9.792681694030762,47.64146799957688,-122.14016500049779,122.24617767333984,0.0,-0.0,0.0
1772180345207482000,0.0007452977588400245,-0.00018921114678960294,-0.00023058491933625191,0.01599665731191635,-0.02924833819270134,-9.776180267333984,47.64146799957688,-122.14016500049779,122.24617767333984,0.0,-0.0,0.0
1772180345219360000,0.00019057962344959378,-0.0007822185871191323,0.0006850782665424049,0.028588827699422836,-0.005971296690404415,-9.835746765136719,47.64146799957688,-122.14016500049779,122.24617767333984,0.0,-0.0,0.0
1772180345243735000,0.00017034716438502073,0.00038264947943389416,-0.0008560806745663285,-0.013260537758469582,-0.015852991491556168,-9.78172492980957,47.64146799957688,-122.14016500049779,122.24617767333984,0.0,-0.0,0.0
1772180345266233000,0.0002269519172841683,0.0013650415930896997,0.0014840862713754177,-0.04215582087635994,-0.004541107919067144,-9.81912899017334,47.64146799957688,-122.14016500049779,122.24617767333984,0.0,-0.0,0.0
1772180345279053000,-0.0003615697205532342,7.766500493744388e-05,1.2545713616418652e-05,-0.027970217168331146,0.039983004331588745,-9.789602279663086,47.64146799957688,-122.14016500049779,122.24617767333984,0.0,-0.0,0.0
1772180345305073000,-0.001170592149719596,9.806234447751194e-05,-0.0010934066958725452,-0.02376502752304077,-0.005604688543826342,-9.80249309539795,47.64146799957688,-122.14016500049779,122.24617767333984,0.0,-0.0,0.0
1772180345317642000,-0.0007996773929335177,-0.0005675058346241713,-0.0003941040486097336,0.042447783052921295,-0.00027514761313796043,-9.783307075500488,47.64146799957688,-122.14016500049779,122.24617767333984,0.0,-0.0,0.0
1772180345345228000,-0.0005347618134692311,0.000945504754781723,0.0010600556852295995,0.005246862303465605,0.01960151270031929,-9.771312713623047,47.64146799957688,-122.14016500049779,122.24617767333984,0.0,-0.0,0.0
1772180345364442000,-0.00033178942976519465,-0.0002991928195115179,9.494133701082319e-05,-0.007962705567479134,-0.00975505169481039,-9.825007438659668,47.64146799957688,-122.14016500049779,122.24617767333984,0.0,-0.0,0.0
1772180345376641000,-7.04054327798076e-05,0.00021270649449434131,-0.0001581286487635225,0.044994160532951355,-0.029199635609984398,-9.812381744384766,47.64146799957688,-122.14016500049779,122.24617767333984,0.0,-0.0,0.0
1772180345402024000,-0.0007389942184090614,-0.0014481318648904562,-7.046983955660835e-05,-0.045858852565288544,-0.007756157778203487,-9.812944412231445,47.64146799957688,-122.14016500049779,122.24617767333984,0.0,-0.0,0.0
1772180345414823000,0.0006131123518571258,0.0005953190266154706,-0.0013303016312420368,-0.008518734946846962,-0.007234289776533842,-9.824682235717773,47.64146799957688,-122.14016500049779,122.24617767333984,0.0,-0.0,0.0
1772180345440480000,-0.00014486756117548794,-0.0012538498267531395,0.00015754652849864215,-0.014424784108996391,0.007180976681411266,-9.793693542480469,47.64146799957688,-122.14016500049779,122.24617767333984,0.0,-0.0,0.0
1772180345464245000,-0.0012664437526836991,1.583821722306311e-05,-0.0013531406875699759,0.04087964817881584,0.009551692754030228,-9.804961204528809,47.64146799957688,-122.14016500049779,122.24617767333984,0.0,-0.0,0.0
1772180345487908000,0.0009692223975434899,0.00016444759967271239,-0.0008613517857156694,-0.016157343983650208,-0.01649353839457035,-9.829568862915039,47.64146799957688,-122.14016500049779,122.24617767333984,0.0,-0.0,0.0
1772180345500004000,-9.517349826637655e-05,-0.0005141377332620323,0.0004802591574843973,-0.07586056739091873,0.00202360050752759,-9.793771743774414,47.64146799957688,-122.14016500049779,122.24617767333984,0.0,-0.0,0.0
1772180345524478000,-0.0004243649891577661,0.0012479807483032346,0.0012983732158318162,0.015189556404948235,0.0305325984954834,-9.817270278930664,47.64146799957688,-122.14016500049779,122.24617767333984,0.0,-0.0,0.0
1772180345547331000,0.0007876513991504908,0.00034805439645424485,-0.0005319216870702803,0.01944630593061447,0.029468202963471413,-9.840174674987793,47.64146799957688,-122.14016500049779,122.24617767333984,0.0,-0.0,0.0
1772180345564324000,0.0012230674037709832,0.0008440488600172102,0.0009477025596424937,-0.000908944639377296,-0.028422554954886436,-9.814223289489746,47.64146799957688,-122.14016500049779,122.24617767333984,0.0,-0.0,0.0
1772180345585160000,0.00024037597177084535,2.8552483854582533e-05,0.0004734596877824515,-0.013986106961965561,0.025014305487275124,-9.824677467346191,47.64146799957688,-122.14016500049779,122.24617767333984,0.0,-0.0,0.0
1772180345608504000,-0.0004354229604359716,0.0007016271119937301,-0.0007747628842480481,0.013532504439353943,-0.008788198232650757,-9.796463966369629,47.64146799957688,-122.14016500049779,122.24617767333984,0.0,-0.0,0.0
1772180345620573000,-0.0004357650759629905,0.00027980993036180735,0.0010560865048319101,0.008577542379498482,0.01967695914208889,-9.800454139709473,47.64146799957688,-122.14016500049779,122.24617767333984,0.0,-0.0,0.0
1772180345642500000,9.141970076598227e-05,0.00012205779057694599,0.0009442396694794297,0.009719990193843842,-0.019716251641511917,-9.803915977478027,47.64146799957688,-122.14016500049779,122.24617767333984,0.0,-0.0,0.0
1772180345653526000,0.0004279568966012448,-0.0006224390817806125,0.0005517792887985706,-0.03574712201952934,-0.029685094952583313,-9.758790016174316,47.64146799957688,-122.14016500049779,122.24617767333984,0.0,-0.0,0.0
1772180345682010000,-0.0008590122452005744,-0.0014282321790233254,-5.276910087559372e-05,0.02181243896484375,0.024950044229626656,-9.814593315124512,47.64146799957688,-122.14016500049779,122.24617767333984,0.0,-0.0,0.0
1772180345710727000,-0.0003564937214832753,-0.0016526133986189961,0.0007034011650830507,0.011422473937273026,-0.01600566692650318,-9.831926345825195,47.64146799957688,-122.14016500049779,122.24617767333984,0.0,-0.0,0.0
1772180345723994000,-6.766482692910358e-05,-0.0005239603342488408,-0.0011115228990092874,0.019793545827269554,-0.03400721400976181,-9.788643836975098,47.64146799957688,-122.14016500049779,122.24617767333984,0.0,-0.0,0.0
1772180345742093000,-0.00031785460305400193,-0.0005296439630910754,0.0003141317283734679,0.0254068486392498,-0.0059229182079434395,-9.78287124633789,47.64146799957688,-122.14016500049779,122.24617767333984,0.0,-0.0,0.0
1772180345763371000,0.0008448919979855418,-0.0013975069159641862,-0.0001438747567590326,-0.011989297345280647,-0.01882563717663288,-9.839941024780273,47.64146799957688,-122.14016500049779,122.24617767333984,0.0,-0.0,0.0
1772180345787402000,-0.0001284709433093667,0.0014876141212880611,-0.0005241091712377965,0.0139506496489048,-0.03202138468623161,-9.832263946533203,47.64146799957688,-122.14016500049779,122.24617767333984,0.0,-0.0,0.0
1772180345811287000,0.0002027211303357035,-0.00012722995597869158,-0.0003825585881713778,-0.044185422360897064,0.0057824039831757545,-9.851823806762695,47.64146799957688,-122.14016500049779,122.24617767333984,0.0,-0.0,0.0
1772180345823654000,0.0007158662774600089,0.0001534258044557646,0.0004336124984547496,-0.028951365500688553,0.03172755613923073,-9.801477432250977,47.64146799957688,-122.14016500049779,122.24617767333984,0.0,-0.0,0.0
1772180345847844000,0.00022701561101712286,-0.0008228872902691364,0.000249056814936921,-0.0002396296476945281,-0.018926577642560005,-9.826325416564941,47.64146799957688,-122.14016500049779,122.24617767333984,0.0,-0.0,0.0
1772180345859710000,-0.00038760018651373684,0.0017345318337902427,-0.0011349301785230637,0.006136178504675627,-0.014690175652503967,-9.826366424560547,47.64146799957688,-122.14016500049779,122.24617767333984,0.0,-0.0,0.0
1772180345888826000,7.454871229128912e-05,-0.00020059262169525027,-6.979575118748471e-05,0.0411321260035038,-0.016729341819882393,-9.812932014465332,47.64146799957688,-122.14016500049779,122.24617767333984,0.0,-0.0,0.0
1772180345909184000,-0.0006560053443536162,0.00013847314403392375,-0.0008438959484919906,-0.010340822860598564,-0.03942834958434105,-9.817252159118652,47.64146799957688,-122.14016500049779,122.24617767333984,0.0,-0.0,0.0
1772180345931910000,0.0008799211937002838,0.0014279927127063274,0.001106648938730359,0.02707313746213913,-0.0026755183935165405,-9.790301322937012,47.64146799957688,-122.14016500049779,122.24617767333984,0.0,-0.0,0.0
1772180345950730000,0.0003264932020101696,-7.535601071140263e-06,0.0006733445334248245,-0.011229639872908592,0.00634826859459281,-9.850955963134766,47.64146799957688,-122.14016500049779,122.24617767333984,0.0,-0.0,0.0
1772180345966924000,3.4386550396448e-05,-0.0006651583244092762,-0.0005372868617996573,-0.004769341554492712,-0.0038128828164190054,-9.815903663635254,47.64146799957688,-122.14016500049779,122.24617767333984,0.0,-0.0,0.0
1772180345978268000,0.0005165291368030012,0.0009136535809375346,-0.0002683063212316483,-0.00672091543674469,-0.01760484091937542,-9.79916000366211,47.64146799957688,-122.14016500049779,122.24617767333984,0.0,-0.0,0.0
1772180346001752000,0.00217621261253953,-0.0013729084748774767,0.0007334758411161602,-0.00029914590413682163,0.00034543772926554084,-9.843727111816406,47.64146799957688,-122.14016500049779,122.24617767333984,0.0,-0.0,0.0
1772180346025637000,-0.00018871192878577858,-0.00026420020731166005,-0.0007883512880653143,0.012148132547736168,-0.014430470764636993,-9.829593658447266,47.64146799957688,-122.14016500049779,122.24617767333984,0.0,-0.0,0.0
1772180346048436000,-0.0001941774389706552,-0.00024468248011544347,0.000832551799248904,0.015265677124261856,0.005416774190962315,-9.80136489868164,47.64146799957688,-122.14016500049779,122.24617767333984,0.0,-0.0,0.0
1772180346071463000,-0.0012476135743781924,0.00013934637536294758,-0.0012378098908811808,-0.005840210244059563,-0.007432510610669851,-9.84546184539795,47.64146799957688,-122.14016500049779,122.24617767333984,0.0,-0.0,0.0
1772180346083402000,0.0009907654020935297,-0.0001954777108039707,-0.0006288018194027245,0.03488858416676521,0.004320001695305109,-9.787725448608398,47.64146799957688,-122.14016500049779,122.24617767333984,0.0,-0.0,0.0
1772180346107135000,0.0008090708288364112,0.0007053827284835279,0.0016604976262897253,0.02639099396765232,-0.07037170231342316,-9.806796073913574,47.64146799957688,-122.14016500049779,122.24617767333984,0.0,-0.0,0.0
1772180346130868000,-0.00010811589891090989,-0.001097543048672378,-0.00022150531003717333,0.03448827192187309,-0.013588766567409039,-9.818161010742188,47.64146799957688,-122.14016500049779,122.24617767333984,0.0,-0.0,0.0
1772180346142858000,-0.0007669355836696923,-0.0010794742265716195,-0.0008103684522211552,-0.04688064008951187,-0.024069147184491158,-9.813563346862793,47.64146799957688,-122.14016500049779,122.24617767333984,0.0,-0.0,0.0
1772180346165114000,0.00017612992087379098,-0.00136000313796103,-0.00040385895408689976,0.013078462332487106,0.030350379645824432,-9.825299263000488,47.64146799957688,-122.14016500049779,122.24617767333984,0.0,-0.0,0.0
1772180346188745000,0.00037741963751614094,-0.0031533504370599985,0.00036295095924288034,-0.013400278985500336,-0.030060110613703728,-9.808842658996582,47.64146799957688,-122.14016500049779,122.24617767333984,0.0,-0.0,0.0
1772180346213207000,0.0008486263104714453,0.0016440243925899267,-0.0004993974580429494,-0.001152460346929729,0.012247019447386265,-9.82199478149414,47.64146799957688,-122.14016500049779,122.24617767333984,0.0,-0.0,0.0
1772180346225491000,-1.2949498341185972e-05,0.00035740435123443604,-0.001961003290489316,0.028968287631869316,0.012630616314709187,-9.813735008239746,47.64146799957688,-122.14016500049779,122.24617767333984,0.0,-0.0,0.0
1772180346251829000,-0.00029509610612876713,7.692165672779083e-05,-0.00010088051203638315,-0.004348190035670996,0.001062197145074606,-9.808956146240234,47.64146799957688,-122.14016500049779,122.24617767333984,0.0,-0.0,0.0
1772180346265477000,0.0004965091939084232,-0.00025608125724829733,-0.0010628383606672287,0.02146073803305626,-0.005128639284521341,-9.818814277648926,47.64146799957688,-122.14016500049779,122.24617767333984,0.0,-0.0,0.0
1772180346293466000,-1.4031456885277294e-05,-0.0013256907695904374,0.0014532413333654404,-0.0012435881653800607,-0.013223099522292614,-9.802846908569336,47.64146799957688,-122.14016500049779,122.24617767333984,0.0,-0.0,0.0
1772180346311985000,-9.717441571410745e-05,-0.0010119379730895162,0.0003855701070278883,0.0037874109111726284,0.017306730151176453,-9.819578170776367,47.64146799957688,-122.14016500049779,122.24617767333984,0.0,-0.0,0.0
1772180346320049000,-0.0008595043327659369,-0.0008041816181503236,-0.00016042575589381158,-0.03846604377031326,-0.026600560173392296,-9.795660018920898,47.64146799957688,-122.14016500049779,122.24617767333984,0.0,-0.0,0.0
1772180346352565000,-0.0010082961525768042,0.00044856820022687316,-0.0013643515994772315,0.001527684973552823,-0.00623680604621768,-9.801304817199707,47.64146799957688,-122.14016500049779,122.24617767333984,0.0,-0.0,0.0
1772180346352565000,-0.0010082961525768042,0.00044856820022687316,-0.0013643515994772315,0.001527684973552823,-0.00623680604621768,-9.801304817199707,47.64146799957688,-122.14016500049779,122.24617767333984,0.0,-0.0,0.0
1772180346393336000,0.0005825190455652773,0.0011097034439444542,0.00015577164595015347,0.02677658200263977,0.013916940428316593,-9.778983116149902,47.64146799957688,-122.14016500049779,122.24617767333984,0.0,-0.0,0.0
1772180346410598000,0.001500805839896202,-0.00022905608057044446,2.0091472833883017e-05,-0.016568919643759727,0.030391277745366096,-9.850747108459473,47.64146799957688,-122.14016500049779,122.24617767333984,0.0,-0.0,0.0
1772180346421977000,0.0005523764993995428,0.0005888101877644658,0.0008420553640462458,0.031800076365470886,0.027896858751773834,-9.811452865600586,47.64146799957688,-122.14016500049779,122.24617767333984,0.0,-0.0,0.0
1772180346450472000,0.0011984469601884484,-0.0005801775841973722,-0.0009576714364811778,0.028212713077664375,0.004178729839622974,-9.806297302246094,47.64146799957688,-122.14016500049779,122.24617767333984,0.0,-0.0,0.0
1772180346465044000,0.0011445475975051522,-0.0004756151174660772,0.00018771951727103442,-0.004558116663247347,0.01638115383684635,-9.825850486755371,47.64146799957688,-122.14016500049779,122.24617767333984,0.0,-0.0,0.0
1772180346491827000,4.231986895320006e-05,0.0004907661932520568,0.0004543396644294262,0.0379147045314312,0.018749650567770004,-9.797158241271973,47.64146799957688,-122.14016500049779,122.24617767333984,0.0,-0.0,0.0
1772180346505056000,-0.0019461046904325485,-0.0007857978343963623,-0.00024650953128002584,-0.019756922498345375,-0.018303176388144493,-9.772232055664062,47.64146799957688,-122.14016500049779,122.24617767333984,0.0,-0.0,0.0
1772180346532235000,0.0004743127792607993,0.00017634753021411598,-0.0008114695083349943,0.04030296206474304,0.015187988057732582,-9.761924743652344,47.64146799957688,-122.14016500049779,122.24617767333984,0.0,-0.0,0.0
1772180346546783000,0.00012706273992080241,-0.0004344060434959829,-0.0012206376995891333,-0.012461207807064056,-0.01664256863296032,-9.789778709411621,47.64146799957688,-122.14016500049779,122.24617767333984,0.0,-0.0,0.0
1772180346559830000,-0.0004315350961405784,0.0005006353603675961,-0.0006355789955705404,-0.021482545882463455,0.013565019704401493,-9.806002616882324,47.64146799957688,-122.14016500049779,122.24617767333984,0.0,-0.0,0.0
1772180346588199000,-0.0007761104498058558,0.0016024023061618209,-0.001997987739741802,0.0015314361080527306,0.01719633862376213,-9.791257858276367,47.64146799957688,-122.14016500049779,122.24617767333984,0.0,-0.0,0.0
1772180346602308000,-0.0004516406625043601,0.00041291717207059264,0.001532754860818386,-0.05636676773428917,-0.008150812238454819,-9.805697441101074,47.64146799957688,-122.14016500049779,122.24617767333984,0.0,-0.0,0.0
1772180346635697000,0.00029211127548478544,0.0003380270500201732,0.0010693625081330538,-0.000750248203985393,-0.0233228150755167,-9.825023651123047,47.64146799957688,-122.14016500049779,122.24617767333984,0.0,-0.0,0.0
1772180346643431000,-0.00079760403605178,0.0010143888648599386,-0.0007608643500134349,-0.04917354881763458,-0.041342172771692276,-9.798678398132324,47.64146799957688,-122.14016500049779,122.24617767333984,0.0,-0.0,0.0
1772180346674037000,-0.0002838701184373349,0.0006216554902493954,0.00014776195166632533,0.00770011218264699,0.0019910242408514023,-9.834297180175781,47.64146799957688,-122.14016500049779,122.24617767333984,0.0,-0.0,0.0
1772180346687396000,0.0010153708280995488,0.0004012486315332353,0.00019613020413089544,-0.02578401379287243,0.0031365896575152874,-9.784191131591797,47.64146799957688,-122.14016500049779,122.24617767333984,0.0,-0.0,0.0
1772180346714439000,7.26771613699384e-05,-0.00027396768564358354,-0.0008290970581583679,-0.008148879744112492,0.004047155845910311,-9.810460090637207,47.64146799957688,-122.14016500049779,122.24617767333984,0.0,-0.0,0.0
1772180346729958000,0.0004276954277884215,0.000452167063485831,-8.426767453784123e-05,-0.02203778550028801,-0.005871134344488382,-9.798266410827637,47.64146799957688,-122.14016500049779,122.24617767333984,0.0,-0.0,0.0
1772180346747917000,-0.0004224380827508867,-0.00015682997764088213,-0.000781651702709496,-0.009094983339309692,0.001102582085877657,-9.777560234069824,47.64146799957688,-122.14016500049779,122.24617767333984,0.0,-0.0,0.0
1772180346772627000,0.00021295459009706974,8.840839291224256e-05,0.0010834743734449148,0.005196568090468645,-0.013197354041039944,-9.782407760620117,47.64146799957688,-122.14016500049779,122.24617767333984,0.0,-0.0,0.0
1772180346789724000,0.00011250235547777265,-0.0004295444814488292,0.0006570715340785682,-0.00187617854680866,0.004119942896068096,-9.804073333740234,47.64146799957688,-122.14016500049779,122.24617767333984,0.0,-0.0,0.0
1772180346813803000,-9.583165956428275e-05,-0.0012462661834433675,0.00025658964295871556,0.00946136750280857,-0.018054960295557976,-9.824655532836914,47.64146799957688,-122.14016500049779,122.24617767333984,0.0,-0.0,0.0
1772180346827350000,-8.382154919672757e-05,-9.557580051477998e-05,0.0006358911632560194,-0.017990220338106155,-0.001228227629326284,-9.791110038757324,47.64146799957688,-122.14016500049779,122.24617767333984,0.0,-0.0,0.0
1772180346841849000,0.0010839280439540744,-0.0004641019622795284,0.001388567266985774,0.012999052181839943,0.00860187504440546,-9.806917190551758,47.64146799957688,-122.14016500049779,122.24617767333984,0.0,-0.0,0.0
1772180346870460000,0.0008234354318119586,-0.0002505925658624619,0.00041514509939588606,0.007425679359585047,-0.015899669378995895,-9.838083267211914,47.64146799957688,-122.14016500049779,122.24617767333984,0.0,-0.0,0.0
1772180346884063000,-0.0006056760321371257,0.0003913599066436291,-0.0003363358846399933,-0.0046963742934167385,-0.016907423734664917,-9.825726509094238,47.64146799957688,-122.14016500049779,122.24617767333984,0.0,-0.0,0.0
1772180346914657000,0.00022533215815201402,0.0004861576308030635,0.00022673291095998138,-0.001453510718420148,0.009274084120988846,-9.85322093963623,47.64146799957688,-122.14016500049779,122.24617767333984,0.0,-0.0,0.0
1772180346928665000,5.158470230526291e-05,0.0010683474829420447,0.0003570750413928181,-0.005428784992545843,0.014497801661491394,-9.787625312805176,47.64146799957688,-122.14016500049779,122.24617767333984,0.0,-0.0,0.0
1772180346956314000,-0.0009539051097817719,-0.0014926387229934335,0.00010839069000212476,-0.007677397225052118,0.009879437275230885,-9.791168212890625,47.64146799957688,-122.14016500049779,122.24617767333984,0.0,-0.0,0.0
1772180346974933000,0.0002815012994688004,0.0009356972295790911,0.00022052261920180172,-0.0026181135326623917,0.005915396381169558,-9.791237831115723,47.64146799957688,-122.14016500049779,122.24617767333984,0.0,-0.0,0.0
1772180346984063000,-0.0008729641558602452,-0.0007156056817620993,0.001851193024776876,-0.006123146507889032,-0.02199304662644863,-9.820427894592285,47.64146799957688,-122.14016500049779,122.24617767333984,0.0,-0.0,0.0
1772180347011533000,-0.0012931979726999998,0.0003937745641451329,0.0002131450455635786,-0.028928667306900024,0.013081894256174564,-9.776912689208984,47.64146799957688,-122.14016500049779,122.24617767333984,0.0,-0.0,0.0
1772180347026234000,3.5673536331159994e-05,0.00010755958646768704,0.0006777779781259596,0.03573807328939438,-0.015635894611477852,-9.835488319396973,47.64146799957688,-122.14016500049779,122.24617767333984,0.0,-0.0,0.0
1772180347053538000,0.0020347859244793653,-0.0001930851285578683,0.0005339267663657665,0.027636131271719933,-0.024840928614139557,-9.801339149475098,47.64146799957688,-122.14016500049779,122.24617767333984,0.0,-0.0,0.0
1772180347066086000,0.0014011895982548594,-0.0015980545431375504,0.000516505038831383,-0.040256794542074203,-0.0351000651717186,-9.782027244567871,47.64146799957688,-122.14016500049779,122.24617767333984,0.0,-0.0,0.0
1772180347091829000,0.0006310836761258543,-9.572003182256594e-05,0.000815803068690002,-0.017324037849903107,-0.016302328556776047,-9.829757690429688,47.64146799957688,-122.14016500049779,122.24617767333984,0.0,-0.0,0.0
1772180347106594000,0.0001496151089668274,0.0007293868693523109,0.00023202929878607392,-0.014267191290855408,0.01870989240705967,-9.817300796508789,47.64146799957688,-122.14016500049779,122.24617767333984,0.0,-0.0,0.0
1772180347131246000,-0.0009936665883287787,-0.00042674184078350663,-0.0005228255758993328,-0.0111351627856493,0.06816775351762772,-9.78990364074707,47.64146799957688,-122.14016500049779,122.24617767333984,0.0,-0.0,0.0
1772180347156324000,-0.001308586448431015,0.0003139783802907914,0.0011692858533933759,-0.009805073961615562,0.0059439875185489655,-9.820669174194336,47.64146799957688,-122.14016500049779,122.24617767333984,0.0,-0.0,0.0
1772180347169302000,0.0006807974423281848,-0.0016422990011051297,-0.0006231142906472087,0.010714014992117882,-0.04409558326005936,-9.818602561950684,47.64146799957688,-122.14016500049779,122.24617767333984,0.0,-0.0,0.0
1772180347192473000,-0.002653087954968214,-0.0017099357210099697,0.000605462584644556,0.011017631739377975,0.011028094217181206,-9.74402141571045,47.64146799957688,-122.14016500049779,122.24617767333984,0.0,-0.0,0.0
1772180347215017000,0.0004847246455028653,0.002831954974681139,0.0012973648263141513,0.019946087151765823,0.07076922059059143,-9.859784126281738,47.64146799957688,-122.14016500049779,122.24617767333984,0.0,-0.0,0.0
1772180347227893000,-0.00035400179331190884,0.0009756039944477379,0.0012140489416196942,-0.024818740785121918,0.0026725376956164837,-9.826193809509277,47.64146799957688,-122.14016500049779,122.24617767333984,0.0,-0.0,0.0
1772180347253246000,-0.0004200083785690367,-0.0003585170197766274,-0.00025308565818704665,0.004148408304899931,0.0012497063726186752,-9.781036376953125,47.64146799957688,-122.14016500049779,122.24617767333984,0.0,-0.0,0.0
1772180347276138000,5.2735471399500966e-05,-0.0006584065267816186,0.002176426351070404,0.011281836777925491,0.030463779345154762,-9.81822395324707,47.64146799957688,-122.14016500049779,122.24617767333984,0.0,-0.0,0.0
1772180347292129000,-0.0003399857960175723,0.00032630222267471254,-0.0006447354098781943,-0.0046875071711838245,0.013115438632667065,-9.80873966217041,47.64146799957688,-122.14016500049779,122.24617767333984,0.0,-0.0,0.0
1772180347315355000,-0.00013101047079544514,0.0010307003976777196,0.0003035785921383649,-0.015488142147660255,-0.0008853321196511388,-9.790691375732422,47.64146799957688,-122.14016500049779,122.24617767333984,0.0,-0.0,0.0
1772180347329504000,0.0019188009900972247,-0.00039908813778311014,-2.039096216321923e-05,0.005297285504639149,0.0223854910582304,-9.804295539855957,47.64146799957688,-122.14016500049779,122.24617767333984,0.0,-0.0,0.0
1772180347356911000,-0.0002819603541865945,-0.0006130135152488947,0.0007570102461613715,-0.023791735991835594,0.03655945882201195,-9.775218963623047,47.64146799957688,-122.14016500049779,122.24617767333984,0.0,-0.0,0.0
1772180347369428000,7.524171087425202e-05,0.00012332767073530704,0.0003446516930125654,-0.006263452582061291,-0.005102652590721846,-9.814574241638184,47.64146799957688,-122.14016500049779,122.24617767333984,0.0,-0.0,0.0
1772180347383469000,-0.0004192864871583879,-9.517429862171412e-05,-0.0006385562592186034,-0.01717516966164112,-0.0051744491793215275,-9.805909156799316,47.64146799957688,-122.14016500049779,122.24617767333984,0.0,-0.0,0.0
1772180347416006000,0.000528839707840234,-0.0009110418614000082,-4.731103763333522e-05,0.003067401237785816,-0.015692105516791344,-9.805038452148438,47.64146799957688,-122.14016500049779,122.24617767333984,0.0,-0.0,0.0
1772180347434799000,-7.818569429218769e-05,-0.0001362121111014858,7.66636076150462e-05,-0.0075864349491894245,0.01334350649267435,-9.801424980163574,47.64146799957688,-122.14016500049779,122.24617767333984,0.0,-0.0,0.0
1772180347448587000,0.0008122586295939982,-0.0005446069408208132,-4.8181416786974296e-05,-0.030510734766721725,0.00800113845616579,-9.8117094039917,47.64146799957688,-122.14016500049779,122.24617767333984,0.0,-0.0,0.0
1772180347474047000,0.0015377855161204934,0.0004356571298558265,-0.0011510845506563783,-0.0004295436665415764,-0.03701494261622429,-9.802989959716797,47.64146799957688,-122.14016500049779,122.24617767333984,0.0,-0.0,0.0
1772180347474047000,0.0015377855161204934,0.0004356571298558265,-0.0011510845506563783,-0.0004295436665415764,-0.03701494261622429,-9.802989959716797,47.64146799957688,-122.14016500049779,122.24617767333984,0.0,-0.0,0.0
1772180347516315000,0.0004167611477896571,-0.0002869761665351689,0.0011103135766461492,-0.0008914226200431585,-0.0008252565748989582,-9.816086769104004,47.64146799957688,-122.14016500049779,122.24617767333984,0.0,-0.0,0.0
1772180347531878000,-0.0001603358832653612,-0.0006217804038897157,-2.6968315069098026e-05,0.014794185757637024,0.039149586111307144,-9.820335388183594,47.64146799957688,-122.14016500049779,122.24617767333984,0.0,-0.0,0.0
1772180347557441000,0.0003900723240803927,8.437853102805093e-05,0.0006392227369360626,0.0497477762401104,-0.010333392769098282,-9.789911270141602,47.64146799957688,-122.14016500049779,122.24617767333984,0.0,-0.0,0.0
1772180347570636000,0.00018566638755146414,0.000316820340231061,-0.00017111761553678662,-0.013747131451964378,-0.0037951336707919836,-9.815278053283691,47.64146799957688,-122.14016500049779,122.24617767333984,0.0,-0.0,0.0
1772180347598420000,0.0003952257102355361,-0.0005334296729415655,0.001035085879266262,0.008246004581451416,-0.005803277716040611,-9.827472686767578,47.64146799957688,-122.14016500049779,122.24617767333984,0.0,-0.0,0.0
1772180347598420000,0.0003952257102355361,-0.0005334296729415655,0.001035085879266262,0.008246004581451416,-0.005803277716040611,-9.827472686767578,47.64146799957688,-122.14016500049779,122.24617767333984,0.0,-0.0,0.0
1772180347637200000,-0.00043039812589995563,-3.0410272302106023e-05,0.0008716892334632576,0.001138076651841402,0.024985145777463913,-9.781055450439453,47.64146799957688,-122.14016500049779,122.24617767333984,0.0,-0.0,0.0
1772180347650558000,-0.00023568113101646304,-0.0001251451758434996,-0.0010687489993870258,-0.009951399639248848,0.016316650435328484,-9.814072608947754,47.64146799957688,-122.14016500049779,122.24617767333984,0.0,-0.0,0.0
1772180347676935000,0.00012863456504419446,-0.0004626881855074316,-0.0005425732233561575,-0.010527361184358597,-0.00857662782073021,-9.810466766357422,47.64146799957688,-122.14016500049779,122.24617767333984,0.0,-0.0,0.0
1772180347690598000,-0.0002187454083468765,0.0010982523672282696,0.0009002205333672464,-0.009801812469959259,-0.04714817553758621,-9.788286209106445,47.64146799957688,-122.14016500049779,122.24617767333984,0.0,-0.0,0.0
1772180347721535000,0.0005081091658212245,-0.0002852663164958358,-0.00016980628424789757,-0.027834391221404076,-0.010932828299701214,-9.793829917907715,47.64146799957688,-122.14016500049779,122.24617767333984,0.0,-0.0,0.0
1772180347730946000,0.0002867920557036996,0.0008449075394310057,0.0002845417766366154,-0.0114698875695467,0.011727353557944298,-9.83076000213623,47.64146799957688,-122.14016500049779,122.24617767333984,0.0,-0.0,0.0
1772180347757633000,-0.000572790449950844,0.0005263373604975641,-0.00020582038268912584,-0.04107265546917915,0.006120807491242886,-9.806556701660156,47.64146799957688,-122.14016500049779,122.24617767333984,0.0,-0.0,0.0
1772180347771223000,-4.6589448174927384e-05,-0.00040569878183305264,-0.00029029129655100405,0.041527990251779556,-0.007418626919388771,-9.794302940368652,47.64146799957688,-122.14016500049779,122.24617767333984,0.0,-0.0,0.0
1772180347795737000,2.7348964067641646e-05,6.0786409449065104e-05,0.00024182522611226887,0.04226573184132576,-0.007037125527858734,-9.798583030700684,47.64146799957688,-122.14016500049779,122.24617767333984,0.0,-0.0,0.0
1772180347807376000,-0.0009612388093955815,0.000993660418316722,0.0008674151031300426,0.04412158951163292,0.015772977843880653,-9.774687767028809,47.64146799957688,-122.14016500049779,122.24617767333984,0.0,-0.0,0.0
1772180347834388000,0.0014829313149675727,0.0023249618243426085,-0.0015420190757140517,0.046507883816957474,-0.02071491628885269,-9.76231861114502,47.64146799957688,-122.14016500049779,122.24617767333984,0.0,-0.0,0.0
1772180347857651000,-0.0011269233655184507,-0.00020035561465192586,0.00011332699068589136,-0.00950515829026699,0.01778448186814785,-9.831747055053711,47.64146799957688,-122.14016500049779,122.24617767333984,0.0,-0.0,0.0
1772180347870533000,-0.0012421120190992951,0.00043234031181782484,-0.00041576821240596473,0.0261637382209301,-0.0013800673186779022,-9.776695251464844,47.64146799957688,-122.14016500049779,122.24617767333984,0.0,-0.0,0.0
1772180347894598000,0.00015359741519205272,0.0002066860324703157,0.0002778831694740802,-0.009394977241754532,-0.0010496986797079444,-9.841858863830566,47.64146799957688,-122.14016500049779,122.24617767333984,0.0,-0.0,0.0
1772180347918866000,0.0006715305498801172,-0.0002520925481803715,-0.0001443265937268734,-0.0014846980338916183,-0.016475362703204155,-9.771504402160645,47.64146799957688,-122.14016500049779,122.24617767333984,0.0,-0.0,0.0
1772180347942560000,0.0012201039353385568,-0.0005956785753369331,0.0007306068437173963,-0.04781394451856613,-0.014154521748423576,-9.820343017578125,47.64146799957688,-122.14016500049779,122.24617767333984,0.0,-0.0,0.0
1772180347955346000,0.0008068159222602844,0.0019944440573453903,-0.0008222413016483188,0.01336781308054924,0.007401175796985626,-9.82602310180664,47.64146799957688,-122.14016500049779,122.24617767333984,0.0,-0.0,0.0
1772180347979205000,-0.0008035480859689415,0.0006706506828777492,8.22619185782969e-05,-0.02720278687775135,-0.008050487376749516,-9.817824363708496,47.64146799957688,-122.14016500049779,122.24617767333984,0.0,-0.0,0.0
1772180347993067000,0.000796658918261528,0.00011528895265655592,0.00040555940358899534,-0.001698149018920958,0.009915867820382118,-9.850028991699219,47.64146799957688,-122.14016500049779,122.24617767333984,0.0,-0.0,0.0
1772180348017483000,0.0003595907473936677,-0.0007156512001529336,0.002034796169027686,0.014059213921427727,-0.019847676157951355,-9.828727722167969,47.64146799957688,-122.14016500049779,122.24617767333984,0.0,-0.0,0.0
1772180348042078000,0.0005679760361090302,-0.00023509377206210047,-0.00040272148908115923,0.003956269938498735,0.013808054849505424,-9.810744285583496,47.64146799957688,-122.14016500049779,122.24617767333984,0.0,-0.0,0.0
1772180348055942000,-0.0006631604046560824,0.00010797668801387772,0.00040839987923391163,-0.05235767737030983,-0.006788795813918114,-9.818683624267578,47.64146799957688,-122.14016500049779,122.24617767333984,0.0,-0.0,0.0
1772180348080288000,-4.691215872298926e-05,-0.000660244666505605,0.0004256462852936238,-0.001057297457009554,0.021679911762475967,-10.112485885620117,47.64146799957688,-122.14016500049779,122.24617767333984,0.0,-0.0,0.0
1772180348094735000,0.0006775954971089959,0.0010403867345303297,-0.0008326665265485644,-0.0015251358272507787,-0.0005152252269908786,-9.796706199645996,47.64146799957688,-122.14016500049779,122.24617767333984,0.0,-0.0,0.0
1772180348119663000,-0.0009805269073694944,-0.0012330417521297932,0.0006528623634949327,0.08779128640890121,0.008521023206412792,-9.877199172973633,47.64146799957688,-122.14016500049779,122.24617767333984,0.0,-0.0,0.0
1772180348138207000,0.0004128551809117198,-0.0069167958572506905,-4.307620110921562e-05,11.002119064331055,-0.008401365950703621,-9.62800407409668,47.64146799957688,-122.1401649281053,122.24591827392578,0.2856729328632355,-3.556021329131909e-05,-0.0027055158279836178
1772180348157045000,0.0005904693389311433,-0.02116622030735016,0.0010310421930626035,11.261801719665527,0.004246890544891357,-9.778950691223145,47.64146799957688,-122.1401649281053,122.24591827392578,0.2856729328632355,-3.556021329131909e-05,-0.0027055158279836178
1772180348182620000,0.0014941028784960508,-0.03315472602844238,-0.0010271486826241016,11.145063400268555,-0.0007786967325955629,-9.748703002929688,47.64146799957688,-122.1401649281053,122.24591827392578,0.2856729328632355,-3.556021329131909e-05,-0.0027055158279836178
1772180348196260000,0.0006999587058089674,-0.04034925997257233,-0.0013812623219564557,11.287712097167969,-0.018346432596445084,-9.83574104309082,47.64146799957688,-122.1401649281053,122.24591827392578,0.2856729328632355,-3.556021329131909e-05,-0.0027055158279836178
1772180348222083000,3.290583845227957e-05,-0.05639350414276123,5.1722279749810696e-05,12.313713073730469,-0.024974029511213303,-9.8634614944458,47.64146799957688,-122.1401649281053,122.24591827392578,0.2856729328632355,-3.556021329131909e-05,-0.0027055158279836178
1772180348222083000,3.290583845227957e-05,-0.05639350414276123,5.1722279749810696e-05,12.313713073730469,-0.024974029511213303,-9.8634614944458,47.64146799957688,-122.1401649281053,122.24591827392578,0.2856729328632355,-3.556021329131909e-05,-0.0027055158279836178
1772180348262526000,0.0003949587407987565,-0.017750730738043785,0.00022626704594586045,10.899657249450684,0.006221801042556763,-9.630685806274414,47.64146800077572,-122.14016388765904,122.24614715576172,1.2948473691940308,0.000941472826525569,0.004409677814692259
1772180348274128000,0.0006926798378117383,-0.01681109145283699,-0.000399529846617952,10.418803215026855,-0.026156511157751083,-9.758588790893555,47.64146800077572,-122.14016388765904,122.24614715576172,1.2948473691940308,0.000941472826525569,0.004409677814692259
1772180348299259000,-0.0005804437678307295,-0.01435386948287487,-0.0011047550942748785,9.205747604370117,0.006934209726750851,-9.824469566345215,47.64146800077572,-122.14016388765904,122.24614715576172,1.2948473691940308,0.000941472826525569,0.004409677814692259
1772180348324530000,-0.00022728691692464054,-0.014914085157215595,-0.00025769349304027855,9.330351829528809,0.026304731145501137,-9.781211853027344,47.64146800077572,-122.14016388765904,122.24614715576172,1.2948473691940308,0.000941472826525569,0.004409677814692259
1772180348342903000,0.0002432557666907087,-0.01846604235470295,-0.0005570920184254646,11.639397621154785,0.023388778790831566,-9.962204933166504,47.64146800077572,-122.14016388765904,122.24614715576172,1.2948473691940308,0.000941472826525569,0.004409677814692259
1772180348361364000,-0.00018247286789119244,-0.01937244087457657,-0.0007256598910316825,11.481001853942871,-0.02909581921994686,-9.915367126464844,47.641468000068855,-122.14016084051872,122.24860382080078,2.524329662322998,0.000344565836712718,0.023914851248264313
1772180348374488000,2.5818641006480902e-05,-0.016943514347076416,0.00021641862986143678,10.55070972442627,-0.0277903713285923,-9.869022369384766,47.641468000068855,-122.14016084051872,122.24860382080078,2.524329662322998,0.000344565836712718,0.023914851248264313
1772180348398754000,0.0001475833123549819,-0.015250161290168762,-0.0004671827773563564,11.017663955688477,-0.01361887902021408,-9.96442985534668,47.641468000068855,-122.14016084051872,122.24860382080078,2.524329662322998,0.000344565836712718,0.023914851248264313
1772180348424242000,0.0005042640259489417,-0.013587210327386856,-0.001154290628619492,9.663350105285645,0.02054751105606556,-9.87498950958252,47.641468000068855,-122.14016084051872,122.24860382080078,2.524329662322998,0.000344565836712718,0.023914851248264313
1772180348436440000,-0.0003609951236285269,-0.014596841298043728,-0.0014336509630084038,11.066402435302734,-0.0061218091286718845,-9.973331451416016,47.641468000068855,-122.14016084051872,122.24860382080078,2.524329662322998,0.000344565836712718,0.023914851248264313
1772180348459965000,-0.0005639071459881961,-0.015682827681303024,-0.001624273951165378,11.026034355163574,0.01371052861213684,-9.880054473876953,47.64146800011352,-122.14015667808245,122.25077819824219,3.5925283432006836,0.00034840728039853275,0.019321467727422714
1772180348484060000,-0.00036217665183357894,-0.011974191293120384,-0.0019174404442310333,11.619232177734375,0.03835899755358696,-10.012901306152344,47.64146800011352,-122.14015667808245,122.25077819824219,3.5925283432006836,0.00034840728039853275,0.019321467727422714
1772180348496677000,6.500341260107234e-05,-0.00881893839687109,-0.0011812289012596011,9.247661590576172,-0.01085767149925232,-9.875234603881836,47.64146800011352,-122.14015667808245,122.25077819824219,3.5925283432006836,0.00034840728039853275,0.019321467727422714
1772180348520931000,0.0004923241212964058,-0.01139212679117918,0.0009030550718307495,10.923157691955566,0.0021875195670872927,-9.945592880249023,47.64146800011352,-122.14015667808245,122.25077819824219,3.5925283432006836,0.00034840728039853275,0.019321467727422714
1772180348545351000,0.0006100049358792603,-0.010025645606219769,0.0002824007242452353,10.4171142578125,0.006644152104854584,-9.934298515319824,47.64146800011352,-122.14015667808245,122.25077819824219,3.5925283432006836,0.00034840728039853275,0.019321467727422714
1772180348563676000,0.0005299833137542009,-0.008614392951130867,-0.00045572538510896266,10.33144760131836,0.01974998414516449,-9.94819164276123,47.64146800066547,-122.14015052837144,122.25263214111328,4.7529296875,0.0003818396362476051,0.012705842964351177
1772180348584412000,0.0002352096780668944,-0.007177543826401234,0.0006797398091293871,10.528247833251953,-0.04193370044231415,-9.995857238769531,47.64146800066547,-122.14015052837144,122.25263214111328,4.7529296875,0.0003818396362476051,0.012705842964351177
1772180348598937000,-2.584067260613665e-05,-0.011753972619771957,-0.00044036610051989555,12.363121032714844,0.023299667984247208,-9.621402740478516,47.64146800066547,-122.14015052837144,122.25263214111328,4.7529296875,0.0003818396362476051,0.012705842964351177
1772180348622709000,0.0001239245611941442,-0.01122603751718998,0.0004495189350564033,13.059837341308594,0.003553376067429781,-9.990876197814941,47.64146800066547,-122.14015052837144,122.25263214111328,4.7529296875,0.0003818396362476051,0.012705842964351177
1772180348646838000,-0.000151972912135534,-0.006976231001317501,0.0006217077607288957,10.260635375976562,-0.016171181574463844,-9.961010932922363,47.64146800066547,-122.14015052837144,122.25263214111328,4.7529296875,0.0003818396362476051,0.012705842964351177
1772180348646838000,-0.000151972912135534,-0.006976231001317501,0.0006217077607288957,10.260635375976562,-0.016171181574463844,-9.961010932922363,47.64146800066547,-122.14015052837144,122.25263214111328,4.7529296875,0.0003818396362476051,0.012705842964351177
1772180348684879000,7.542844105046242e-05,-0.004433919675648212,0.0012503305915743113,8.38531494140625,0.02416090853512287,-9.92074203491211,47.64146799974088,-122.14014324038573,122.25347900390625,5.841282844543457,0.0004343027248978615,0.009338599629700184
1772180348696101000,-0.00010686510358937085,-0.008332657627761364,-0.0006519732414744794,18.49032211303711,-0.033160869032144547,-10.082001686096191,47.64146799974088,-122.14014324038573,122.25347900390625,5.841282844543457,0.0004343027248978615,0.009338599629700184
1772180348722677000,-0.0005705567891709507,-0.0036241740453988314,-0.00038089187000878155,9.458710670471191,0.01290876790881157,-9.951828956604004,47.64146799974088,-122.14014324038573,122.25347900390625,5.841282844543457,0.0004343027248978615,0.009338599629700184
1772180348746552000,1.953711716851103e-06,-0.0038839213084429502,0.001078498549759388,12.671889305114746,0.004226917866617441,-9.979631423950195,47.64146799974088,-122.14014324038573,122.25347900390625,5.841282844543457,0.0004343027248978615,0.009338599629700184
1772180348758531000,0.0001844115904532373,-0.0019334484823048115,-0.0007975788903422654,9.88765811920166,0.02442646026611328,-9.943281173706055,47.64146799974088,-122.14014324038573,122.25347900390625,5.841282844543457,0.0004343027248978615,0.009338599629700184
1772180348783557000,-0.0015729459701105952,-0.001443859888240695,-0.0011119813425466418,9.671356201171875,0.019888678565621376,-9.879825592041016,47.64146800353685,-122.14013355795852,122.25479125976562,7.0248847007751465,0.001078372122719884,0.002857289044186473
1772180348796686000,0.0001286810147576034,-0.0022402722388505936,0.0014582460280507803,11.205338478088379,0.027470171451568604,-9.954480171203613,47.64146800353685,-122.14013355795852,122.25479125976562,7.0248847007751465,0.001078372122719884,0.002857289044186473
1772180348820427000,0.0006910943193361163,-0.0014585338067263365,0.0013110279105603695,11.563385009765625,0.059222862124443054,-9.938858985900879,47.64146800353685,-122.14013355795852,122.25479125976562,7.0248847007751465,0.001078372122719884,0.002857289044186473
1772180348844375000,7.021487544989213e-05,0.00032957352232187986,0.0018744263797998428,10.629756927490234,0.020426228642463684,-9.94450569152832,47.64146800353685,-122.14013355795852,122.25479125976562,7.0248847007751465,0.001078372122719884,0.002857289044186473
1772180348855973000,-0.00016101013170555234,-0.0004600790562108159,0.00023527344455942512,9.98509693145752,0.04526471346616745,-9.87779712677002,47.64146800353685,-122.14013355795852,122.25479125976562,7.0248847007751465,0.001078372122719884,0.002857289044186473
1772180348883449000,0.0012432746589183807,0.0008965026354417205,-0.0011525864247232676,9.939087867736816,0.018504470586776733,-9.941145896911621,47.64146800496108,-122.14012238384473,122.25440979003906,8.166391372680664,0.005778951570391655,-0.0010288381017744541
1772180348904597000,0.00019959908968303353,0.001321698073297739,0.0015499654691666365,9.298662185668945,0.014894265681505203,-9.902800559997559,47.64146800496108,-122.14012238384473,122.25440979003906,8.166391372680664,0.005778951570391655,-0.0010288381017744541
1772180348916795000,-8.337375766132027e-05,0.0012664158130064607,0.0021221954375505447,9.783991813659668,0.03424040600657463,-9.907428741455078,47.64146800496108,-122.14012238384473,122.25440979003906,8.166391372680664,0.005778951570391655,-0.0010288381017744541
1772180348941678000,0.0009039670694619417,0.001895739696919918,0.0004471836728043854,9.590139389038086,0.026704590767621994,-9.909441947937012,47.64146800496108,-122.14012238384473,122.25440979003906,8.166391372680664,0.005778951570391655,-0.0010288381017744541
1772180348966415000,0.00045500858686864376,0.00325011252425611,0.0009359785472042859,9.785066604614258,0.022374633699655533,-9.880293846130371,47.64146800496108,-122.14012238384473,122.25440979003906,8.166391372680664,0.005778951570391655,-0.0010288381017744541
1772180348978167000,-0.0005398158100433648,0.002236597938463092,0.0009257594938389957,10.517891883850098,0.05011363327503204,-9.9398193359375,47.64146800496108,-122.14012238384473,122.25440979003906,8.166391372680664,0.005778951570391655,-0.0010288381017744541
1772180349004894000,0.00015662575606256723,0.003155831480398774,-0.0005939416587352753,8.676443099975586,0.018730919808149338,-9.884873390197754,47.64146801404375,-122.14010943152451,122.25428009033203,9.303656578063965,0.01084032841026783,-0.002758288523182273
1772180349016943000,-0.002183978445827961,0.0025733187794685364,0.0006515873828902841,10.211702346801758,0.04962155967950821,-9.893270492553711,47.64146801404375,-122.14010943152451,122.25428009033203,9.303656578063965,0.01084032841026783,-0.002758288523182273
1772180349041612000,-0.0005515336524695158,0.001972856232896447,0.0015384901780635118,9.242047309875488,0.024899978190660477,-9.904655456542969,47.64146801404375,-122.14010943152451,122.25428009033203,9.303656578063965,0.01084032841026783,-0.002758288523182273
1772180349066044000,-0.0012343915877863765,0.0014610603684559464,-9.973155101761222e-05,9.328182220458984,0.022286532446742058,-9.90841007232666,47.64146801404375,-122.14010943152451,122.25428009033203,9.303656578063965,0.01084032841026783,-0.002758288523182273
1772180349089588000,-0.001069250050932169,0.00341394217684865,0.0013907967368140817,10.206897735595703,0.04576278477907181,-9.887011528015137,47.64146801404375,-122.14010943152451,122.25428009033203,9.303656578063965,0.01084032841026783,-0.002758288523182273
1772180349106646000,-0.0009598900214768946,0.001324970624409616,0.0017143983859568834,9.654313087463379,-0.015904488041996956,-9.89450740814209,47.64146802591285,-122.14009468307165,122.2538833618164,10.432125091552734,0.013473332859575748,-0.003136633662506938
1772180349126076000,0.00029295848798938096,0.0018824373837560415,0.001057122484780848,9.816344261169434,-0.006158890202641487,-9.925311088562012,47.64146802591285,-122.14009468307165,122.2538833618164,10.432125091552734,0.013473332859575748,-0.003136633662506938
1772180349138337000,-0.0004853256104979664,0.0028374940156936646,1.9236525986343622e-05,10.14647388458252,0.013671008870005608,-9.916407585144043,47.64146802591285,-122.14009468307165,122.2538833618164,10.432125091552734,0.013473332859575748,-0.003136633662506938
1772180349164153000,0.0010730503126978874,0.0025858881417661905,0.0007405501091852784,9.50019645690918,-0.012133064679801464,-9.875065803527832,47.64146802591285,-122.14009468307165,122.2538833618164,10.432125091552734,0.013473332859575748,-0.003136633662506938
1772180349188592000,-0.00016940315254032612,0.0012415748788043857,0.001836579293012619,11.568575859069824,0.014300159178674221,-9.915324211120605,47.64146802591285,-122.14009468307165,122.2538833618164,10.432125091552734,0.013473332859575748,-0.003136633662506938
1772180349200558000,6.9862944656051695e-06,0.001627594232559204,0.001313585671596229,8.351518630981445,-0.0017870892770588398,-9.871139526367188,47.64146802591285,-122.14009468307165,122.2538833618164,10.432125091552734,0.013473332859575748,-0.003136633662506938
1772180349225277000,-0.0013405708596110344,0.0015904478495940566,-0.0014682626351714134,8.468815803527832,0.013541704043745995,-9.883338928222656,47.64146803989676,-122.14007836563954,122.25354766845703,11.523158073425293,0.014166568405926228,-0.0030025856103748083
1772180349249347000,0.0006381111452355981,0.001708286115899682,0.002070765011012554,8.751734733581543,0.014713073149323463,-9.892186164855957,47.64146803989676,-122.14007836563954,122.25354766845703,11.523158073425293,0.014166568405926228,-0.0030025856103748083
1772180349262603000,0.0008008499862626195,0.002650642301887274,0.0018772375769913197,9.438097953796387,0.05646378546953201,-9.915018081665039,47.64146803989676,-122.14007836563954,122.25354766845703,11.523158073425293,0.014166568405926228,-0.0030025856103748083
1772180349275546000,0.0003041615418624133,0.0025943301152437925,0.0005126898176968098,8.573637962341309,0.022444341331720352,-9.910736083984375,47.64146803989676,-122.14007836563954,122.25354766845703,11.523158073425293,0.014166568405926228,-0.0030025856103748083
1772180349298970000,-0.0010102721862494946,0.004024723079055548,0.003008932340890169,10.37274169921875,0.01904497668147087,-9.928665161132812,47.64146803989676,-122.14007836563954,122.25354766845703,11.523158073425293,0.014166568405926228,-0.0030025856103748083
1772180349328957000,0.0001856584713095799,0.0025350255891680717,0.0022859687451273203,8.513055801391602,0.03156562149524689,-9.861428260803223,47.64146805428655,-122.14006052407336,122.25312805175781,12.578871726989746,0.016076218336820602,-0.0026135689113289118
1772180349349214000,0.0011134576052427292,0.002332640578970313,0.0006436604890041053,9.462249755859375,0.036155879497528076,-9.892894744873047,47.64146805428655,-122.14006052407336,122.25312805175781,12.578871726989746,0.016076218336820602,-0.0026135689113289118
1772180349361026000,-0.00028291373746469617,0.000861953420098871,0.00025285989977419376,8.535470008850098,-4.0786340832710266e-05,-9.86971664428711,47.64146805428655,-122.14006052407336,122.25312805175781,12.578871726989746,0.016076218336820602,-0.0026135689113289118
1772180349387436000,-0.00020406700787134469,0.00030339835211634636,0.000949464796576649,8.165970802307129,-0.003122083842754364,-9.858282089233398,47.64146805428655,-122.14006052407336,122.25312805175781,12.578871726989746,0.016076218336820602,-0.0026135689113289118
1772180349399294000,0.0012300340458750725,0.00043388467747718096,0.0028314513619989157,9.346250534057617,-0.018477266654372215,-9.878141403198242,47.64146805428655,-122.14006052407336,122.25312805175781,12.578871726989746,0.016076218336820602,-0.0026135689113289118
1772180349429554000,0.0001276264083571732,0.0011819726787507534,0.001414972241036594,8.455851554870605,0.050822071731090546,-9.918720245361328,47.64146806926991,-122.14004303228802,122.25270080566406,13.501811027526855,0.01875094696879387,-0.002349893329665065
1772180349450423000,0.002488467376679182,0.0028256697114557028,0.0036820019595324993,9.453258514404297,1.597872257232666,-9.849096298217773,47.64146806926991,-122.14004303228802,122.25270080566406,13.501811027526855,0.01875094696879387,-0.002349893329665065
1772180349462975000,0.007336391136050224,0.004162002354860306,0.00908209290355444,7.0728373527526855,2.0627758502960205,-9.792954444885254,47.64146806926991,-122.14004303228802,122.25270080566406,13.501811027526855,0.01875094696879387,-0.002349893329665065
1772180349486877000,0.037530384957790375,0.013898859731853008,0.056143663823604584,4.894896984100342,4.653039932250977,-9.81877613067627,47.64146806926991,-122.14004303228802,122.25270080566406,13.501811027526855,0.01875094696879387,-0.002349893329665065
1772180349505517000,0.04786241054534912,0.015345207415521145,0.08160322159528732,2.4290311336517334,5.022785186767578,-9.811405181884766,47.64146806926991,-122.14004303228802,122.25270080566406,13.501811027526855,0.01875094696879387,-0.002349893329665065
1772180349529664000,0.07829128205776215,0.027135973796248436,0.16015693545341492,1.5144453048706055,5.869720935821533,-9.873754501342773,47.64146822789374,-122.14002437730373,122.2529067993164,14.063236236572266,0.37727904319763184,0.0008663336629979312
1772180349549160000,0.09636255353689194,0.03624005615711212,0.262376070022583,0.24783942103385925,6.40322208404541,-9.931745529174805,47.64146822789374,-122.14002437730373,122.2529067993164,14.063236236572266,0.37727904319763184,0.0008663336629979312
1772180349561072000,0.08567498624324799,0.03350839391350746,0.26718273758888245,-0.4257355034351349,5.605252265930176,-9.93070125579834,47.64146822789374,-122.14002437730373,122.2529067993164,14.063236236572266,0.37727904319763184,0.0008663336629979312
1772180349584629000,0.0943976566195488,0.03872004523873329,0.34499233961105347,-1.3658099174499512,5.7574462890625,-9.954105377197266,47.64146822789374,-122.14002437730373,122.2529067993164,14.063236236572266,0.37727904319763184,0.0008663336629979312
1772180349611274000,0.08469365537166595,0.03873954340815544,0.3649251461029053,-1.7373065948486328,5.136129856109619,-9.965303421020508,47.64146822789374,-122.14002437730373,122.2529067993164,14.063236236572266,0.37727904319763184,0.0008663336629979312
1772180349624168000,0.10900212824344635,0.04973186179995537,0.4894150197505951,-2.3294641971588135,6.143016815185547,-9.935574531555176,47.64146822789374,-122.14002437730373,122.2529067993164,14.063236236572266,0.37727904319763184,0.0008663336629979312
1772180349648717000,0.07887863367795944,0.04966007173061371,0.5127649307250977,-2.611623525619507,2.629950761795044,-9.995072364807129,47.64146900255916,-122.14000355645982,122.25202178955078,13.922977447509766,1.037968635559082,-0.010480033233761787
1772180349661495000,0.052093036472797394,0.05824066698551178,0.5965100526809692,-3.2719712257385254,-0.5397544503211975,-9.902827262878418,47.64146900255916,-122.14000355645982,122.25202178955078,13.922977447509766,1.037968635559082,-0.010480033233761787
1772180349686333000,-0.018681494519114494,0.048820093274116516,0.45531022548675537,-2.88092303276062,-2.131155252456665,-9.812108039855957,47.64146900255916,-122.14000355645982,122.25202178955078,13.922977447509766,1.037968635559082,-0.010480033233761787
1772180349699659000,-0.0341472290456295,0.05228537693619728,0.4656071662902832,-3.3689334392547607,-0.5834178924560547,-9.838874816894531,47.64146900255916,-122.14000355645982,122.25202178955078,13.922977447509766,1.037968635559082,-0.010480033233761787
1772180349723852000,-0.07634390890598297,0.030790843069553375,0.40288931131362915,6.850518703460693,1.4047000408172607,-9.469598770141602,47.64146900255916,-122.14000355645982,122.25202178955078,13.922977447509766,1.037968635559082,-0.010480033233761787
1772180349736345000,-0.06229368597269058,0.02217436023056507,0.37331461906433105,9.479623794555664,1.6873748302459717,-9.854619979858398,47.64146900255916,-122.14000355645982,122.25202178955078,13.922977447509766,1.037968635559082,-0.010480033233761787
1772180349762654000,-0.02995235100388527,0.004904883448034525,0.3123919665813446,8.530488967895508,2.238023519515991,-9.84377670288086,47.64147006426764,-122.13998274632335,122.25084686279297,14.068621635437012,1.1117534637451172,-0.010960073210299015
1772180349786037000,-0.00555183133110404,-0.007832021452486515,0.3378095328807831,9.713994026184082,3.105522394180298,-9.857556343078613,47.64147006426764,-122.13998274632335,122.25084686279297,14.068621635437012,1.1117534637451172,-0.010960073210299015
1772180349811479000,0.012261073105037212,-0.01691354252398014,0.26923465728759766,7.839991569519043,3.0092990398406982,-9.839475631713867,47.64147006426764,-122.13998274632335,122.25084686279297,14.068621635437012,1.1117534637451172,-0.010960073210299015
1772180349825242000,0.02233743667602539,-0.02383504807949066,0.29713737964630127,8.75944709777832,3.640040874481201,-9.888458251953125,47.64147006426764,-122.13998274632335,122.25084686279297,14.068621635437012,1.1117534637451172,-0.010960073210299015
1772180349849420000,0.05112170800566673,-0.03682742267847061,0.3145157992839813,6.2187628746032715,5.465460777282715,-9.894851684570312,47.64147006426764,-122.13998274632335,122.25084686279297,14.068621635437012,1.1117534637451172,-0.010960073210299015
1772180349868192000,-0.003887997707352042,-0.010511902160942554,0.212313711643219,1.282888412475586,4.616890907287598,-8.968835830688477,47.641471462464814,-122.1399607644034,122.24943542480469,14.873062133789062,1.6181124448776245,-0.003061579307541251
1772180349887662000,-0.0012946559581905603,0.0009127246448770165,0.1934581995010376,0.9341036677360535,4.719048500061035,-9.790740966796875,47.641471462464814,-122.1399607644034,122.24943542480469,14.873062133789062,1.6181124448776245,-0.003061579307541251
1772180349911643000,0.012992501258850098,0.006744047626852989,0.16684678196907043,-0.47902461886405945,4.081482887268066,-9.862408638000488,47.641471462464814,-122.1399607644034,122.24943542480469,14.873062133789062,1.6181124448776245,-0.003061579307541251
1772180349929869000,0.018499167636036873,0.008273393847048283,0.16525112092494965,-1.1837223768234253,3.9524245262145996,-9.917915344238281,47.641471462464814,-122.1399607644034,122.24943542480469,14.873062133789062,1.6181124448776245,-0.003061579307541251
1772180349948062000,0.03187023103237152,0.013704555109143257,0.15538564324378967,-2.2909200191497803,5.646385669708252,-9.916232109069824,47.641471462464814,-122.1399607644034,122.24943542480469,14.873062133789062,1.6181124448776245,-0.003061579307541251
1772180349960079000,0.029155025258660316,0.009581830352544785,0.13886478543281555,-2.5098989009857178,5.706181526184082,-9.764398574829102,47.641471462464814,-122.1399607644034,122.24943542480469,14.873062133789062,1.6181124448776245,-0.003061579307541251
1772180349983952000,0.01810440979897976,0.00036933051887899637,0.13878485560417175,-3.1600213050842285,6.361385822296143,-9.764487266540527,47.64147336184131,-122.139938791141,122.24958801269531,14.697781562805176,2.1351165771484375,0.006302446126937866
1772180350008290000,0.02203485742211342,0.002116134390234947,0.1636158674955368,-3.416287899017334,6.21164083480835,-9.77621841430664,47.64147336184131,-122.139938791141,122.24958801269531,14.697781562805176,2.1351165771484375,0.006302446126937866
1772180350032746000,0.02798319421708584,0.00367300258949399,0.224888414144516,-4.040369987487793,6.78612756729126,-9.85549545288086,47.64147336184131,-122.139938791141,122.24958801269531,14.697781562805176,2.1351165771484375,0.006302446126937866
1772180350044613000,0.025888046249747276,0.003501460188999772,0.22695259749889374,-3.8228580951690674,6.058372974395752,-9.870193481445312,47.64147336184131,-122.139938791141,122.24958801269531,14.697781562805176,2.1351165771484375,0.006302446126937866
1772180350069076000,0.026652866974473,0.004211675841361284,0.2746885120868683,-4.027029991149902,5.7744317054748535,-9.91939640045166,47.64147336184131,-122.139938791141,122.24958801269531,14.697781562805176,2.1351165771484375,0.006302446126937866
1772180350094337000,0.023457221686840057,0.0047186496667563915,0.30841928720474243,-4.059016704559326,5.346267223358154,-9.921457290649414,47.64147583308844,-122.13991777419159,122.25071716308594,14.160602569580078,2.786806344985962,0.013775846920907497
1772180350106927000,0.030800528824329376,0.008343317545950413,0.40377020835876465,-5.113589763641357,6.51291561126709,-9.912107467651367,47.64147583308844,-122.13991777419159,122.25071716308594,14.160602569580078,2.786806344985962,0.013775846920907497
1772180350118913000,0.02376503311097622,0.008568529970943928,0.39041581749916077,-4.4766316413879395,5.995322227478027,-9.954651832580566,47.64147583308844,-122.13991777419159,122.25071716308594,14.160602569580078,2.786806344985962,0.013775846920907497
1772180350155629000,0.0202107485383749,0.007660035043954849,0.4643092453479767,-4.61899471282959,4.501533508300781,-10.015127182006836,47.64147583308844,-122.13991777419159,122.25071716308594,14.160602569580078,2.786806344985962,0.013775846920907497
1772180350167546000,0.009620712138712406,0.011788644827902317,0.4507160186767578,-4.364673614501953,2.0669353008270264,-10.049156188964844,47.64147583308844,-122.13991777419159,122.25071716308594,14.160602569580078,2.786806344985962,0.013775846920907497
1772180350179715000,-0.016533877700567245,0.01418854109942913,0.4813801646232605,-4.6141839027404785,-0.9406086802482605,-10.077397346496582,47.64147583308844,-122.13991777419159,122.25071716308594,14.160602569580078,2.786806344985962,0.013775846920907497
1772180350204129000,-0.05261295288801193,0.01614823192358017,0.3877734839916229,-3.9751362800598145,-1.2064263820648193,-9.939553260803223,47.64147885960563,-122.13989748349579,122.25205993652344,13.596091270446777,3.1091151237487793,0.001126307644881308
1772180350227845000,-0.05207374691963196,0.01860632188618183,0.34007343649864197,-3.8981435298919678,1.0405941009521484,-9.985422134399414,47.64147885960563,-122.13989748349579,122.25205993652344,13.596091270446777,3.1091151237487793,0.001126307644881308
1772180350251348000,-0.016491031274199486,0.018917061388492584,0.29317253828048706,-3.435408353805542,4.6412835121154785,-9.80075454711914,47.64147885960563,-122.13989748349579,122.25205993652344,13.596091270446777,3.1091151237487793,0.001126307644881308
1772180350275576000,-0.015430903062224388,0.010694894939661026,0.2865726947784424,-3.3694536685943604,5.97135066986084,-9.709575653076172,47.64147885960563,-122.13989748349579,122.25205993652344,13.596091270446777,3.1091151237487793,0.001126307644881308
1772180350288212000,-0.008365441113710403,0.008447707630693913,0.3555757999420166,-4.09262228012085,7.776740550994873,-9.78358268737793,47.64147885960563,-122.13989748349579,122.25205993652344,13.596091270446777,3.1091151237487793,0.001126307644881308
1772180350311922000,0.013598545454442501,0.0033027110621333122,0.3628206253051758,-3.8918118476867676,7.737794399261475,-9.835331916809082,47.64148197188613,-122.13987828235466,122.25146484375,13.054082870483398,3.4620485305786133,0.0021674016024917364
1772180350324703000,0.025210369378328323,0.0011523407883942127,0.4334762692451477,-4.608890533447266,8.859528541564941,-9.820714950561523,47.64148197188613,-122.13987828235466,122.25146484375,13.054082870483398,3.4620485305786133,0.0021674016024917364
1772180350349207000,0.03418485447764397,-0.00032842066138982773,0.4334909915924072,-4.380966663360596,7.950478553771973,-9.948358535766602,47.64148197188613,-122.13987828235466,122.25146484375,13.054082870483398,3.4620485305786133,0.0021674016024917364
1772180350375857000,0.0384792797267437,-0.0020468183793127537,0.42508476972579956,-4.1032562255859375,6.998817443847656,-9.88523006439209,47.64148197188613,-122.13987828235466,122.25146484375,13.054082870483398,3.4620485305786133,0.0021674016024917364
1772180350388185000,0.04246211796998978,-0.003376275533810258,0.44408899545669556,-4.513258934020996,7.1694512367248535,-9.9108247756958,47.64148197188613,-122.13987828235466,122.25146484375,13.054082870483398,3.4620485305786133,0.0021674016024917364
1772180350400517000,0.05266551673412323,-0.004476964473724365,0.5303020477294922,-5.303447723388672,8.117886543273926,-9.949469566345215,47.64148197188613,-122.13987828235466,122.25146484375,13.054082870483398,3.4620485305786133,0.0021674016024917364
1772180350425752000,0.04285874962806702,-0.0028640935197472572,0.46083834767341614,-4.592234134674072,6.3814239501953125,-9.892571449279785,47.64148588241579,-122.13985929366676,122.2520751953125,12.339648246765137,4.155760288238525,0.005210595205426216
1772180350451326000,0.021612614393234253,0.007652960252016783,0.4551911950111389,-4.3536787033081055,6.269454002380371,-9.75818920135498,47.64148588241579,-122.13985929366676,122.2520751953125,12.339648246765137,4.155760288238525,0.005210595205426216
1772180350475414000,0.024602079764008522,0.012185460887849331,0.5792362093925476,-4.754400253295898,7.780572414398193,-9.947118759155273,47.64148588241579,-122.13985929366676,122.2520751953125,12.339648246765137,4.155760288238525,0.005210595205426216
1772180350487841000,0.022186994552612305,0.011939927004277706,0.5349626541137695,-4.285574913024902,6.601933479309082,-9.937575340270996,47.64148588241579,-122.13985929366676,122.2520751953125,12.339648246765137,4.155760288238525,0.005210595205426216
1772180350512391000,0.010932196862995625,0.011807036586105824,0.5370574593544006,-4.1201171875,3.1113500595092773,-10.089934349060059,47.64148588241579,-122.13985929366676,122.2520751953125,12.339648246765137,4.155760288238525,0.005210595205426216
1772180350535133000,-0.035747822374105453,0.012752287089824677,0.5195803046226501,1.7565021514892578,-1.889398455619812,-10.069283485412598,47.6414904125962,-122.13984141380206,122.25284576416016,11.626587867736816,4.619278907775879,0.002722399076446891
1772180350552733000,-0.04874879866838455,0.00875416211783886,0.493556410074234,7.000079154968262,-0.7270832061767578,-10.050657272338867,47.6414904125962,-122.13984141380206,122.25284576416016,11.626587867736816,4.619278907775879,0.002722399076446891
1772180350572717000,-0.05288516357541084,-0.005683993920683861,0.4502548277378082,9.807412147521973,0.6533145308494568,-10.015667915344238,47.6414904125962,-122.13984141380206,122.25284576416016,11.626587867736816,4.619278907775879,0.002722399076446891
1772180350597416000,-0.04626196622848511,-0.01876257173717022,0.4563811421394348,10.458941459655762,1.924446702003479,-10.02675724029541,47.6414904125962,-122.13984141380206,122.25284576416016,11.626587867736816,4.619278907775879,0.002722399076446891
1772180350610230000,-0.05003426596522331,-0.017048729583621025,0.4084112346172333,9.444110870361328,2.2406198978424072,-9.713298797607422,47.6414904125962,-122.13984141380206,122.25284576416016,11.626587867736816,4.619278907775879,0.002722399076446891
1772180350622473000,-0.05457292124629021,-0.01174288708716631,0.3752158284187317,8.985574722290039,2.9659359455108643,-9.51832103729248,47.6414904125962,-122.13984141380206,122.25284576416016,11.626587867736816,4.619278907775879,0.002722399076446891
1772180350649058000,-0.03915867581963539,-0.009252083487808704,0.3064824342727661,7.97125768661499,2.919769525527954,-9.80319595336914,47.64149515880666,-122.1398237996226,122.25261688232422,12.429264068603516,5.113204002380371,-0.003371354192495346
1772180350673972000,-0.010811694897711277,-0.0018697300693020225,0.3509574830532074,6.260411262512207,7.69696044921875,-9.708321571350098,47.64149515880666,-122.1398237996226,122.25261688232422,12.429264068603516,5.113204002380371,-0.003371354192495346
1772180350686623000,0.011523320339620113,0.004386414308100939,0.30073195695877075,3.5735433101654053,7.673941612243652,-9.767716407775879,47.64149515880666,-122.1398237996226,122.25261688232422,12.429264068603516,5.113204002380371,-0.003371354192495346
1772180350711824000,0.050836071372032166,0.0166690144687891,0.3321833908557892,2.1754794120788574,8.961973190307617,-9.921832084655762,47.64149515880666,-122.1398237996226,122.25261688232422,12.429264068603516,5.113204002380371,-0.003371354192495346
1772180350736035000,0.08154205977916718,0.02891840972006321,0.36255258321762085,0.6188416481018066,9.192628860473633,-9.982843399047852,47.64149515880666,-122.1398237996226,122.25261688232422,12.429264068603516,5.113204002380371,-0.003371354192495346
1772180350757648000,0.0912993773818016,0.03405473381280899,0.3787126839160919,-0.004453268833458424,9.033469200134277,-10.040657997131348,47.641500952069435,-122.13980475896268,122.2527084350586,12.455062866210938,6.113221168518066,0.00676049804314971
1772180350772495000,0.09300795197486877,0.03682570159435272,0.38766711950302124,-1.1075667142868042,8.06870174407959,-10.138715744018555,47.641500952069435,-122.13980475896268,122.2527084350586,12.455062866210938,6.113221168518066,0.00676049804314971
1772180350796421000,0.025601912289857864,0.016707316040992737,0.41782867908477783,-2.6874594688415527,8.366908073425293,-9.771523475646973,47.641500952069435,-122.13980475896268,122.2527084350586,12.455062866210938,6.113221168518066,0.00676049804314971
1772180350809770000,0.02568335272371769,0.013407427817583084,0.42498064041137695,-2.7829389572143555,7.95709228515625,-10.056246757507324,47.641500952069435,-122.13980475896268,122.2527084350586,12.455062866210938,6.113221168518066,0.00676049804314971
1772180350835138000,0.03482900932431221,0.009312222711741924,0.491131454706192,-3.6724636554718018,8.13541316986084,-10.125761985778809,47.641500952069435,-122.13980475896268,122.2527084350586,12.455062866210938,6.113221168518066,0.00676049804314971
1772180350846832000,0.02910846658051014,0.007833801209926605,0.4300805628299713,-3.3766427040100098,6.699945449829102,-10.11341667175293,47.641500952069435,-122.13980475896268,122.2527084350586,12.455062866210938,6.113221168518066,0.00676049804314971
1772180350871638000,0.024841805920004845,0.006530468817800283,0.4426519572734833,-3.6785364151000977,6.329688549041748,-9.942127227783203,47.64150746298075,-122.13978682695365,122.25413513183594,11.777838706970215,6.765344142913818,0.009631838649511337
1772180350897102000,0.015039876103401184,0.010260450653731823,0.4564921259880066,-3.827881336212158,6.199313640594482,-10.038408279418945,47.64150746298075,-122.13978682695365,122.25413513183594,11.777838706970215,6.765344142913818,0.009631838649511337
1772180350910170000,0.021030981093645096,0.016124704852700233,0.6190744042396545,-5.124887943267822,8.28980541229248,-10.048728942871094,47.64150746298075,-122.13978682695365,122.25413513183594,11.777838706970215,6.765344142913818,0.009631838649511337
1772180350935585000,0.015535757876932621,0.0136717539280653,0.5724436640739441,-4.662174224853516,7.38497257232666,-10.020240783691406,47.64150746298075,-122.13978682695365,122.25413513183594,11.777838706970215,6.765344142913818,0.009631838649511337
1772180350947646000,0.012628970667719841,0.014999555423855782,0.5968073606491089,-4.843393802642822,7.572706699371338,-10.049631118774414,47.64150746298075,-122.13978682695365,122.25413513183594,11.777838706970215,6.765344142913818,0.009631838649511337
1772180350973008000,0.007452060934156179,0.013596323318779469,0.5650736689567566,-4.495133876800537,7.073272228240967,-10.060526847839355,47.641513789532304,-122.13977163238637,122.25482940673828,11.007162094116211,7.184974193572998,0.0058703129179775715
1772180350996402000,0.011417063884437084,0.018036261200904846,0.6960057020187378,-5.426582336425781,8.587541580200195,-10.029644966125488,47.641513789532304,-122.13977163238637,122.25482940673828,11.007162094116211,7.184974193572998,0.0058703129179775715
1772180351010796000,0.009191364981234074,0.015682311728596687,0.5901637673377991,-4.535778999328613,7.174612522125244,-10.012505531311035,47.641513789532304,-122.13977163238637,122.25482940673828,11.007162094116211,7.184974193572998,0.0058703129179775715
1772180351035989000,0.013000966049730778,0.01819845288991928,0.7278686761856079,-5.569773197174072,8.811519622802734,-10.030000686645508,47.641513789532304,-122.13977163238637,122.25482940673828,11.007162094116211,7.184974193572998,0.0058703129179775715
1772180351048619000,0.01040316466242075,0.01667913980782032,0.6497296094894409,-4.915765762329102,7.830103397369385,-10.019806861877441,47.641513789532304,-122.13977163238637,122.25482940673828,11.007162094116211,7.184974193572998,0.0058703129179775715
1772180351072736000,0.011001965031027794,0.017801033332943916,0.678015410900116,-5.061677932739258,8.145623207092285,-10.03713607788086,47.641521336425384,-122.13975584219955,122.2552261352539,10.05393123626709,7.618420124053955,0.004303811118006706
1772180351096633000,0.010994836688041687,0.016735244542360306,0.6487399339675903,-4.769924163818359,7.70200777053833,-9.997089385986328,47.641521336425384,-122.13975584219955,122.2552261352539,10.05393123626709,7.618420124053955,0.004303811118006706
1772180351121188000,0.008821790106594563,0.017746303230524063,0.6412723660469055,-4.616506576538086,7.654435634613037,-10.010111808776855,47.641521336425384,-122.13975584219955,122.2552261352539,10.05393123626709,7.618420124053955,0.004303811118006706
1772180351133099000,0.008696808479726315,0.01935930736362934,0.6522656679153442,-4.715980052947998,7.758288860321045,-10.040355682373047,47.641521336425384,-122.13975584219955,122.2552261352539,10.05393123626709,7.618420124053955,0.004303811118006706
1772180351158194000,0.008718539960682392,0.016155967488884926,0.6112475395202637,-4.375453472137451,7.203604221343994,-9.97307014465332,47.641521336425384,-122.13975584219955,122.2552261352539,10.05393123626709,7.618420124053955,0.004303811118006706
1772180351158194000,0.008718539960682392,0.016155967488884926,0.6112475395202637,-4.375453472137451,7.203604221343994,-9.97307014465332,47.641521336425384,-122.13975584219955,122.2552261352539,10.05393123626709,7.618420124053955,0.004303811118006706
1772180351193608000,0.006762146949768066,0.015897344797849655,0.583695113658905,-4.083339214324951,6.847961902618408,-9.989912033081055,47.6415282050715,-122.13974337606993,122.25588989257812,9.183284759521484,7.96185827255249,0.0040664528496563435
1772180351218787000,0.005288878921419382,0.0106785474345088,0.4465407431125641,-3.1100330352783203,5.17147970199585,-9.94947624206543,47.6415282050715,-122.13974337606993,122.25588989257812,9.183284759521484,7.96185827255249,0.0040664528496563435
1772180351233276000,0.010310112498700619,0.019181983545422554,0.6940370798110962,-4.751767158508301,8.15264892578125,-10.034385681152344,47.6415282050715,-122.13974337606993,122.25588989257812,9.183284759521484,7.96185827255249,0.0040664528496563435
1772180351256954000,0.011157738044857979,0.02447596564888954,0.895002543926239,-6.0218071937561035,10.537759780883789,-10.082510948181152,47.6415282050715,-122.13974337606993,122.25588989257812,9.183284759521484,7.96185827255249,0.0040664528496563435
1772180351269592000,0.009188942611217499,0.018838485702872276,0.6538228392601013,-4.381807327270508,7.570258617401123,-9.984662055969238,47.6415282050715,-122.13974337606993,122.25588989257812,9.183284759521484,7.96185827255249,0.0040664528496563435
1772180351294866000,0.007764655165374279,0.019045602530241013,0.711309552192688,-4.731226444244385,8.223051071166992,-10.047173500061035,47.64153630102923,-122.13973068375037,122.2558822631836,8.169989585876465,8.299100875854492,0.0032917363569140434
1772180351318707000,0.009133192710578442,0.02143549732863903,0.7402076125144958,-4.897981643676758,8.590319633483887,-10.059309959411621,47.64153630102923,-122.13973068375037,122.2558822631836,8.169989585876465,8.299100875854492,0.0032917363569140434
1772180351330633000,0.005667290650308132,0.020422717556357384,0.7349891662597656,-4.794878959655762,8.452547073364258,-10.01099967956543,47.64153630102923,-122.13973068375037,122.2558822631836,8.169989585876465,8.299100875854492,0.0032917363569140434
1772180351355624000,0.00602780282497406,0.01876009814441204,0.6397939324378967,-4.1696929931640625,7.254644393920898,-9.997563362121582,47.64153630102923,-122.13973068375037,122.2558822631836,8.169989585876465,8.299100875854492,0.0032917363569140434
1772180351368947000,0.007398718502372503,0.021983489394187927,0.8200029730796814,-5.275818347930908,9.407066345214844,-10.048518180847168,47.64153630102923,-122.13973068375037,122.2558822631836,8.169989585876465,8.299100875854492,0.0032917363569140434
1772180351397716000,0.005169379524886608,0.022261250764131546,0.7914338707923889,-4.984009742736816,8.94194221496582,-10.078487396240234,47.64154380376164,-122.13972060428918,122.25604248046875,7.248819351196289,8.544450759887695,0.0022377765271812677
1772180351417378000,0.005199065897613764,0.02124464511871338,0.7458415031433105,-4.637007236480713,8.36242961883545,-10.034974098205566,47.64154380376164,-122.13972060428918,122.25604248046875,7.248819351196289,8.544450759887695,0.0022377765271812677
1772180351429609000,-0.0042332191951572895,0.01577623188495636,0.7404409050941467,-8.320393562316895,8.470648765563965,-9.30600643157959,47.64154380376164,-122.13972060428918,122.25604248046875,7.248819351196289,8.544450759887695,0.0022377765271812677
1772180351456584000,0.02162553369998932,0.02410484477877617,0.6631955504417419,-3.64351487159729,7.186604022979736,-10.213971138000488,47.64154380376164,-122.13972060428918,122.25604248046875,7.248819351196289,8.544450759887695,0.0022377765271812677
1772180351483245000,-0.14721710979938507,0.03760464861989021,0.6822543740272522,-2.278360366821289,4.545228004455566,-13.017318725585938,47.64154380376164,-122.13972060428918,122.25604248046875,7.248819351196289,8.544450759887695,0.0022377765271812677
1772180351500352000,-0.1295914500951767,0.04448355734348297,0.8601691126823425,-5.145557880401611,10.23390007019043,-9.709907531738281,47.64155276169322,-122.13971039373115,122.25585174560547,6.183507442474365,8.733210563659668,-0.035951387137174606
1772180351520059000,-0.07984267920255661,0.02812117151916027,0.820586085319519,-5.214510440826416,9.600874900817871,-9.580801963806152,47.64155276169322,-122.13971039373115,122.25585174560547,6.183507442474365,8.733210563659668,-0.035951387137174606
1772180351531933000,-0.04765729978680611,0.01841498166322708,0.6678423881530762,-4.204959392547607,7.710005760192871,-9.651838302612305,47.64155276169322,-122.13971039373115,122.25585174560547,6.183507442474365,8.733210563659668,-0.035951387137174606
1772180351558278000,-0.02362571842968464,0.015397117473185062,0.6945881843566895,-3.8845412731170654,7.496194839477539,-9.85551929473877,47.64155276169322,-122.13971039373115,122.25585174560547,6.183507442474365,8.733210563659668,-0.035951387137174606
1772180351570079000,-0.01489978190511465,0.013369818218052387,0.7083259224891663,-3.790487289428711,7.548105239868164,-9.879634857177734,47.64155276169322,-122.13971039373115,122.25585174560547,6.183507442474365,8.733210563659668,-0.035951387137174606
1772180351594584000,0.005300609860569239,0.006197258364409208,0.6740825176239014,-3.801590919494629,7.198467254638672,-9.835410118103027,47.64155276169322,-122.13971039373115,122.25585174560547,6.183507442474365,8.733210563659668,-0.035951387137174606
1772180351619112000,0.017218923196196556,0.00564160943031311,0.6722817420959473,-3.719029664993286,7.0365424156188965,-9.974396705627441,47.641561699991456,-122.13970200088684,122.25382232666016,5.098255157470703,8.864980697631836,-0.0068250191397964954
1772180351644222000,0.03255068510770798,0.005056820809841156,0.790572464466095,-4.171512603759766,8.134073257446289,-9.931160926818848,47.641561699991456,-122.13970200088684,122.25382232666016,5.098255157470703,8.864980697631836,-0.0068250191397964954
1772180351656391000,0.012629024684429169,0.013068541884422302,0.7086697816848755,-4.243380546569824,7.267664432525635,-9.557731628417969,47.641561699991456,-122.13970200088684,122.25382232666016,5.098255157470703,8.864980697631836,-0.0068250191397964954
1772180351680888000,0.011862842366099358,0.018530847504734993,0.7997810244560242,-4.338329792022705,8.18286418914795,-9.866178512573242,47.641561699991456,-122.13970200088684,122.25382232666016,5.098255157470703,8.864980697631836,-0.0068250191397964954
1772180351693651000,0.011310448870062828,0.016296179965138435,0.7429277896881104,-3.9785799980163574,7.514481067657471,-9.944021224975586,47.641561699991456,-122.13970200088684,122.25382232666016,5.098255157470703,8.864980697631836,-0.0068250191397964954
1772180351722360000,0.014943809248507023,0.020177951082587242,0.8380186557769775,-4.1187663078308105,8.11538028717041,-9.990047454833984,47.64157049899525,-122.13969537368246,122.25435638427734,4.066780090332031,8.903742790222168,0.00629293592646718
1772180351742406000,0.010469023138284683,0.017994677647948265,0.7552815079689026,-3.4273979663848877,4.830428123474121,-10.045105934143066,47.64157049899525,-122.13969537368246,122.25435638427734,4.066780090332031,8.903742790222168,0.00629293592646718
1772180351755062000,-0.0028358353301882744,0.0209531057626009,0.8053856492042542,-3.3619227409362793,2.5850138664245605,-10.152856826782227,47.64157049899525,-122.13969537368246,122.25435638427734,4.066780090332031,8.903742790222168,0.00629293592646718
1772180351780078000,-0.04711832106113434,0.021150896325707436,0.7142517566680908,-2.6468467712402344,-1.5692592859268188,-10.021440505981445,47.64157049899525,-122.13969537368246,122.25435638427734,4.066780090332031,8.903742790222168,0.00629293592646718
1772180351805489000,-0.07136979699134827,0.015042109414935112,0.5693588256835938,3.066260576248169,-0.8079404830932617,-9.982283592224121,47.64157049899525,-122.13969537368246,122.25435638427734,4.066780090332031,8.903742790222168,0.00629293592646718
1772180351823051000,-0.08610142767429352,0.012126114219427109,0.6572396755218506,9.59782600402832,0.4118936061859131,-10.042898178100586,47.64157842239298,-122.139690224276,122.2535400390625,3.901386260986328,8.902637481689453,-0.014358180575072765
1772180351844169000,-0.07004530727863312,-0.003443304914981127,0.5950544476509094,11.325321197509766,0.8677945137023926,-9.993904113769531,47.64157842239298,-122.139690224276,122.2535400390625,3.901386260986328,8.902637481689453,-0.014358180575072765
1772180351856676000,-0.053203172981739044,-0.010686240158975124,0.495574027299881,9.663806915283203,1.1316041946411133,-9.922532081604004,47.64157842239298,-122.139690224276,122.2535400390625,3.901386260986328,8.902637481689453,-0.014358180575072765
1772180351882645000,-0.037405166774988174,-0.021231938153505325,0.4996733069419861,10.0485200881958,1.8881806135177612,-9.90223503112793,47.64157842239298,-122.139690224276,122.2535400390625,3.901386260986328,8.902637481689453,-0.014358180575072765
1772180351895517000,-0.05392349138855934,-0.020140916109085083,0.5496253371238708,10.897602081298828,2.9635560512542725,-9.43622875213623,47.64157842239298,-122.139690224276,122.2535400390625,3.901386260986328,8.902637481689453,-0.014358180575072765
1772180351906772000,-0.05673277750611305,-0.010834547691047192,0.4861873984336853,9.842975616455078,3.1112308502197266,-9.399295806884766,47.64157842239298,-122.139690224276,122.2535400390625,3.901386260986328,8.902637481689453,-0.014358180575072765
1772180351933521000,-0.035743363201618195,-0.006273780949413776,0.3753350079059601,7.954524040222168,2.7232909202575684,-9.706892967224121,47.64158714440315,-122.13968471385799,122.25188446044922,4.084001064300537,9.98057746887207,-0.0053422702476382256
1772180351958731000,-0.02626744657754898,-0.005554742645472288,0.4381394386291504,9.047372817993164,4.782190799713135,-9.756689071655273,47.64158714440315,-122.13968471385799,122.25188446044922,4.084001064300537,9.98057746887207,-0.0053422702476382256
1772180351984398000,0.010156885720789433,0.0038596359081566334,0.3888183534145355,6.625509738922119,7.098544597625732,-9.737617492675781,47.64158714440315,-122.13968471385799,122.25188446044922,4.084001064300537,9.98057746887207,-0.0053422702476382256
1772180352001967000,0.031233806163072586,0.010186932981014252,0.43556705117225647,6.715350151062012,8.98897647857666,-9.754878044128418,47.64158714440315,-122.13968471385799,122.25188446044922,4.084001064300537,9.98057746887207,-0.0053422702476382256
1772180352008934000,0.046693552285432816,0.012642978690564632,0.4085387885570526,5.485945701599121,9.06815242767334,-9.833205223083496,47.64158714440315,-122.13968471385799,122.25188446044922,4.084001064300537,9.98057746887207,-0.0053422702476382256
1772180352036663000,0.0639721006155014,0.020447876304388046,0.3356991112232208,3.0984814167022705,7.9760332107543945,-9.949625015258789,47.64159673412666,-122.13967940931822,122.25272369384766,3.672053098678589,10.921653747558594,0.010615212842822075
1772180352063039000,0.10329017043113708,0.03515706956386566,0.4161556661128998,1.9574525356292725,9.601165771484375,-10.070518493652344,47.64159673412666,-122.13967940931822,122.25272369384766,3.672053098678589,10.921653747558594,0.010615212842822075
1772180352075577000,0.10601531714200974,0.04031190276145935,0.420884370803833,1.1377685070037842,9.316317558288574,-10.098148345947266,47.64159673412666,-122.13967940931822,122.25272369384766,3.672053098678589,10.921653747558594,0.010615212842822075
1772180352100998000,0.07432840019464493,0.030590152367949486,0.42741551995277405,-1.0411616563796997,8.731389045715332,-9.653335571289062,47.64159673412666,-122.13967940931822,122.25272369384766,3.672053098678589,10.921653747558594,0.010615212842822075
1772180352113651000,0.037623364478349686,0.018186887726187706,0.42650294303894043,-1.8317266702651978,8.534046173095703,-9.516363143920898,47.64159673412666,-122.13967940931822,122.25272369384766,3.672053098678589,10.921653747558594,0.010615212842822075
1772180352138731000,0.03673495352268219,0.009563696570694447,0.4673537313938141,-2.1295294761657715,8.128530502319336,-10.15937614440918,47.64160720109546,-122.13967504649617,122.25389099121094,2.762681722640991,11.26374340057373,0.017771970480680466
1772180352164067000,0.03391856700181961,0.009107464924454689,0.4999925494194031,-2.9768714904785156,7.631053447723389,-10.056652069091797,47.64160720109546,-122.13967504649617,122.25389099121094,2.762681722640991,11.26374340057373,0.017771970480680466
1772180352177026000,0.026461517438292503,0.011114014312624931,0.49930891394615173,-3.2105398178100586,7.176626205444336,-10.024697303771973,47.64160720109546,-122.13967504649617,122.25389099121094,2.762681722640991,11.26374340057373,0.017771970480680466
1772180352189591000,0.02254297584295273,0.013700046576559544,0.5136962532997131,-3.412837028503418,7.0908284187316895,-10.082334518432617,47.64160720109546,-122.13967504649617,122.25389099121094,2.762681722640991,11.26374340057373,0.017771970480680466
1772180352215198000,0.015591745264828205,0.011261861771345139,0.5101478695869446,-3.3692479133605957,6.469454765319824,-10.072683334350586,47.64160720109546,-122.13967504649617,122.25389099121094,2.762681722640991,11.26374340057373,0.017771970480680466
1772180352240953000,0.012349940836429596,0.015070609748363495,0.5405474901199341,-3.6671812534332275,6.417126655578613,-10.086933135986328,47.64161749309933,-122.13967193331078,122.2547607421875,1.9388701915740967,11.125394821166992,0.007188957650214434
1772180352266929000,0.009438563138246536,0.015099995769560337,0.5877322554588318,-3.885469675064087,6.701571941375732,-10.06314468383789,47.64161749309933,-122.13967193331078,122.2547607421875,1.9388701915740967,11.125394821166992,0.007188957650214434
1772180352279754000,0.008839239366352558,0.017289794981479645,0.6697108745574951,-4.385214805603027,7.54957389831543,-10.012402534484863,47.64161749309933,-122.13967193331078,122.2547607421875,1.9388701915740967,11.125394821166992,0.007188957650214434
1772180352305134000,0.006612920667976141,0.017910350114107132,0.6814643144607544,-4.325483322143555,7.458106994628906,-10.035536766052246,47.64161749309933,-122.13967193331078,122.2547607421875,1.9388701915740967,11.125394821166992,0.007188957650214434
1772180352318067000,0.004923270549625158,0.017404062673449516,0.6678966879844666,-4.267020225524902,7.248467445373535,-10.047098159790039,47.64161749309933,-122.13967193331078,122.2547607421875,1.9388701915740967,11.125394821166992,0.007188957650214434
1772180352344551000,0.005545664578676224,0.017943553626537323,0.6799895167350769,-4.191164493560791,7.244032382965088,-9.989052772521973,47.641627555939564,-122.1396699264603,122.25548553466797,1.1164612770080566,10.834940910339355,0.0022837817668914795
1772180352358601000,0.004505476448684931,0.01908114366233349,0.7195990085601807,-4.387796878814697,7.654026508331299,-10.027786254882812,47.641627555939564,-122.1396699264603,122.25548553466797,1.1164612770080566,10.834940910339355,0.0022837817668914795
1772180352384489000,0.004870300646871328,0.01864963211119175,0.7501235604286194,-4.449239730834961,7.84757137298584,-10.026451110839844,47.641627555939564,-122.1396699264603,122.25548553466797,1.1164612770080566,10.834940910339355,0.0022837817668914795
1772180352397565000,0.005727972835302353,0.022507628425955772,0.8334518074989319,-4.870480537414551,8.648762702941895,-10.041733741760254,47.641627555939564,-122.1396699264603,122.25548553466797,1.1164612770080566,10.834940910339355,0.0022837817668914795
1772180352422539000,0.00414660107344389,0.02054307609796524,0.7225362658500671,-3.921553373336792,7.337851047515869,-9.986054420471191,47.641627555939564,-122.1396699264603,122.25548553466797,1.1164612770080566,10.834940910339355,0.0022837817668914795
1772180352446328000,0.0016593178734183311,0.02061244659125805,0.7881502509117126,-3.9894161224365234,5.920232772827148,-10.111104011535645,47.641637696972545,-122.13966905171729,122.25564575195312,0.24789881706237793,10.4669189453125,0.001180291990749538
1772180352458239000,-0.006022195797413588,0.018106890842318535,0.6538758277893066,-3.1732535362243652,3.1789562702178955,-10.110413551330566,47.641637696972545,-122.13966905171729,122.25564575195312,0.24789881706237793,10.4669189453125,0.001180291990749538
1772180352483147000,-0.03921235725283623,0.012197981588542461,0.6529057621955872,7.459380149841309,-0.699142575263977,-10.050822257995605,47.641637696972545,-122.13966905171729,122.25564575195312,0.24789881706237793,10.4669189453125,0.001180291990749538
1772180352507417000,-0.07424325495958328,-0.0028041028417646885,0.663233757019043,10.396744728088379,-0.8018813729286194,-10.034611701965332,47.641637696972545,-122.13966905171729,122.25564575195312,0.24789881706237793,10.4669189453125,0.001180291990749538
1772180352519630000,-0.07957067340612411,-0.007576982490718365,0.6259031295776367,10.080443382263184,-0.04541380703449249,-9.949724197387695,47.641637696972545,-122.13966905171729,122.25564575195312,0.24789881706237793,10.4669189453125,0.001180291990749538
1772180352549343000,-0.08823772519826889,-0.008043354377150536,0.5786693692207336,9.802912712097168,1.3821330070495605,-9.763277053833008,47.64164810376383,-122.13966883254832,122.25433349609375,0.12405669689178467,11.14008903503418,-0.015224393457174301
1772180352556936000,-0.09250100702047348,-0.011449849233031273,0.6213307976722717,10.743267059326172,2.103508472442627,-9.767051696777344,47.64164810376383,-122.13966883254832,122.25433349609375,0.12405669689178467,11.14008903503418,-0.015224393457174301
1772180352583100000,-0.0709652379155159,-0.008731283247470856,0.5343195199966431,9.577494621276855,2.7745790481567383,-9.787322044372559,47.64164810376383,-122.13966883254832,122.25433349609375,0.12405669689178467,11.14008903503418,-0.015224393457174301
1772180352608780000,-0.057271916419267654,-0.008174527436494827,0.5261284112930298,9.893458366394043,3.499173402786255,-9.767206192016602,47.64164810376383,-122.13966883254832,122.25433349609375,0.12405669689178467,11.14008903503418,-0.015224393457174301
1772180352627612000,-0.05287809669971466,-0.0068713282234966755,0.5472304224967957,10.505289077758789,4.0389838218688965,-9.765933990478516,47.64164810376383,-122.13966883254832,122.25433349609375,0.12405669689178467,11.14008903503418,-0.015224393457174301
1772180352634430000,-0.0352914072573185,-0.0053052217699587345,0.44602686166763306,8.73670768737793,3.571394443511963,-9.853326797485352,47.64164810376383,-122.13966883254832,122.25433349609375,0.12405669689178467,11.14008903503418,-0.015224393457174301
1772180352659450000,-0.022534294053912163,-0.0008290511323139071,0.41892173886299133,8.60510540008545,3.9032955169677734,-9.766023635864258,47.64165892991259,-122.13966891853856,122.25373840332031,-0.2727673351764679,12.139866828918457,-0.0026358747854828835
1772180352685298000,-0.00952065084129572,0.0016622829716652632,0.3945501148700714,8.389345169067383,4.1156325340271,-9.818892478942871,47.64165892991259,-122.13966891853856,122.25373840332031,-0.2727673351764679,12.139866828918457,-0.0026358747854828835
1772180352698401000,-0.0034231829922646284,0.0014839917421340942,0.42769575119018555,8.851776123046875,5.3852949142456055,-9.822508811950684,47.64165892991259,-122.13966891853856,122.25373840332031,-0.2727673351764679,12.139866828918457,-0.0026358747854828835
1772180352723190000,0.02306322753429413,0.010489934124052525,0.39798450469970703,6.399183750152588,7.008632183074951,-9.856739044189453,47.64165892991259,-122.13966891853856,122.25373840332031,-0.2727673351764679,12.139866828918457,-0.0026358747854828835
1772180352735575000,0.032929953187704086,0.012940331362187862,0.38815638422966003,5.84490966796875,7.143089771270752,-9.879277229309082,47.64165892991259,-122.13966891853856,122.25373840332031,-0.2727673351764679,12.139866828918457,-0.0026358747854828835
1772180352760452000,0.044641803950071335,0.01919521577656269,0.32208502292633057,4.00543212890625,6.385472297668457,-9.921510696411133,47.6416703356876,-122.13966974926507,122.2538070678711,-0.9253258109092712,12.857619285583496,0.003954128362238407
1772180352784363000,0.051472008228302,0.020506739616394043,0.29647570848464966,2.520336389541626,6.026381969451904,-10.005109786987305,47.6416703356876,-122.13966974926507,122.2538070678711,-0.9253258109092712,12.857619285583496,0.003954128362238407
1772180352809449000,0.049503911286592484,0.023116234689950943,0.24568189680576324,0.8772098422050476,4.9804487228393555,-10.018779754638672,47.6416703356876,-122.13966974926507,122.2538070678711,-0.9253258109092712,12.857619285583496,0.003954128362238407
1772180352829814000,0.06047428399324417,0.02969321422278881,0.2842404842376709,0.295377254486084,5.814721584320068,-10.076970100402832,47.6416703356876,-122.13966974926507,122.2538070678711,-0.9253258109092712,12.857619285583496,0.003954128362238407
1772180352834727000,0.04954942688345909,0.024257149547338486,0.23332971334457397,-0.41681545972824097,4.643118858337402,-10.103446960449219,47.6416703356876,-122.13966974926507,122.2538070678711,-0.9253258109092712,12.857619285583496,0.003954128362238407
1772180352861837000,0.041667647659778595,0.026039868593215942,0.2017671912908554,-1.3446025848388672,3.856330633163452,-10.063512802124023,47.64168331112637,-122.13967173810632,122.25343322753906,-1.5811431407928467,12.909488677978516,-0.010485697537660599
1772180352889182000,0.042173583060503006,0.028768572956323624,0.20240359008312225,-2.350382089614868,5.668022155761719,-9.948025703430176,47.64168331112637,-122.13967173810632,122.25343322753906,-1.5811431407928467,12.909488677978516,-0.010485697537660599
1772180352901330000,-0.007685549091547728,0.013348866254091263,0.16656430065631866,-3.576420307159424,6.1397013664245605,-9.166603088378906,47.64168331112637,-122.13967173810632,122.25343322753906,-1.5811431407928467,12.909488677978516,-0.010485697537660599
1772180352927623000,-0.0010283015435561538,0.006249065976589918,0.16192589700222015,-2.948961019515991,6.190667629241943,-9.888787269592285,47.64168331112637,-122.13967173810632,122.25343322753906,-1.5811431407928467,12.909488677978516,-0.010485697537660599
1772180352940604000,0.005650630686432123,0.004594071768224239,0.21978572010993958,-3.833021879196167,7.934566974639893,-9.937758445739746,47.64168331112637,-122.13967173810632,122.25343322753906,-1.5811431407928467,12.909488677978516,-0.010485697537660599
1772180352966558000,0.01322320755571127,0.002109662862494588,0.23699240386486053,-3.6914312839508057,6.72543478012085,-9.971084594726562,47.64169536033458,-122.13967445154461,122.2532730102539,-2.2200052738189697,12.474530220031738,0.0013775533298030496
1772180352979800000,0.01456188503652811,0.0032774447463452816,0.2569156289100647,-3.787214994430542,6.4855499267578125,-9.95800495147705,47.64169536033458,-122.13967445154461,122.2532730102539,-2.2200052738189697,12.474530220031738,0.0013775533298030496
1772180353004940000,0.007153011858463287,0.0070494720712304115,0.3288750648498535,-4.254347324371338,6.613629341125488,-9.959646224975586,47.64169536033458,-122.13967445154461,122.2532730102539,-2.2200052738189697,12.474530220031738,0.0013775533298030496
1772180353017802000,0.004843506496399641,0.00696143601089716,0.32936322689056396,-4.061227798461914,5.929394245147705,-9.954991340637207,47.64169536033458,-122.13967445154461,122.2532730102539,-2.2200052738189697,12.474530220031738,0.0013775533298030496
1772180353044912000,0.003786449320614338,0.007152315694838762,0.35363391041755676,-3.940570592880249,5.390669822692871,-9.897303581237793,47.64169536033458,-122.13967445154461,122.2532730102539,-2.2200052738189697,12.474530220031738,0.0013775533298030496
1772180353069868000,0.0030334675684571266,0.009939263574779034,0.4577558636665344,-4.725137710571289,6.030566692352295,-9.988179206848145,47.64170677323841,-122.13967801027039,122.25318908691406,-2.7933034896850586,11.92136001586914,0.0016473331488668919
1772180353082654000,0.004443134646862745,0.010505426675081253,0.49999386072158813,-4.954128742218018,6.380089282989502,-10.00234317779541,47.64170677323841,-122.13967801027039,122.25318908691406,-2.7933034896850586,11.92136001586914,0.0016473331488668919
1772180353109520000,0.005358499474823475,0.011171652935445309,0.5232906937599182,-4.735025882720947,6.311606407165527,-9.90267562866211,47.64170677323841,-122.13967801027039,122.25318908691406,-2.7933034896850586,11.92136001586914,0.0016473331488668919
1772180353123179000,0.004428941756486893,0.010939260944724083,0.4964601397514343,-4.311817646026611,5.822010517120361,-9.966001510620117,47.64170677323841,-122.13967801027039,122.25318908691406,-2.7933034896850586,11.92136001586914,0.0016473331488668919
1772180353150558000,0.005040683317929506,0.01209730189293623,0.5685037970542908,-4.556318283081055,6.462645530700684,-9.953607559204102,47.64170677323841,-122.13967801027039,122.25318908691406,-2.7933034896850586,11.92136001586914,0.0016473331488668919
1772180353168811000,0.006775647401809692,0.01635640859603882,0.644878625869751,-5.001611232757568,7.260584354400635,-9.922587394714355,47.64170677323841,-122.13967801027039,122.25318908691406,-2.7933034896850586,11.92136001586914,0.0016473331488668919
1772180353187118000,0.008577452041208744,0.01572468876838684,0.70740807056427,-5.238525867462158,7.811322212219238,-9.947970390319824,47.64171774445275,-122.13968239879885,122.2535400390625,-3.3696136474609375,11.275657653808594,0.002949326066300273
1772180353199606000,0.00810154341161251,0.014164779335260391,0.6030281782150269,-4.328323841094971,6.650699138641357,-9.939960479736328,47.64171774445275,-122.13968239879885,122.2535400390625,-3.3696136474609375,11.275657653808594,0.002949326066300273
1772180353226477000,0.009959052316844463,0.014183520339429379,0.6242080926895142,-4.30642032623291,6.826996803283691,-9.92935562133789,47.64171774445275,-122.13968239879885,122.2535400390625,-3.3696136474609375,11.275657653808594,0.002949326066300273
1772180353250693000,0.013862065970897675,0.016482392325997353,0.7540278434753418,-5.029476642608643,8.14714241027832,-9.970769882202148,47.64171774445275,-122.13968239879885,122.2535400390625,-3.3696136474609375,11.275657653808594,0.002949326066300273
1772180353268311000,0.012052617035806179,0.017094364389777184,0.722038209438324,-4.719735622406006,7.781987190246582,-9.976691246032715,47.64171774445275,-122.13968239879885,122.2535400390625,-3.3696136474609375,11.275657653808594,0.002949326066300273
1772180353290200000,0.015758924186229706,0.017617443576455116,0.7468212246894836,-4.775073051452637,8.00085163116455,-9.954187393188477,47.64172756098259,-122.13968735259793,122.25411224365234,-3.9630260467529297,10.610143661499023,0.005845081061124802
1772180353302589000,0.012653572484850883,0.015719925984740257,0.6546153426170349,-4.1067047119140625,6.982543468475342,-9.952954292297363,47.64172756098259,-122.13968735259793,122.25411224365234,-3.9630260467529297,10.610143661499023,0.005845081061124802
1772180353330883000,0.014122052118182182,0.016673292964696884,0.6594151854515076,-4.0130109786987305,6.976066589355469,-9.991917610168457,47.64172756098259,-122.13968735259793,122.25411224365234,-3.9630260467529297,10.610143661499023,0.005845081061124802
1772180353342118000,0.013527958653867245,0.018425671383738518,0.7207043766975403,-4.391417503356934,7.679589748382568,-9.952986717224121,47.64172756098259,-122.13968735259793,122.25411224365234,-3.9630260467529297,10.610143661499023,0.005845081061124802
1772180353356136000,0.020309053361415863,0.02404279075562954,0.9719216823577881,-5.815593719482422,10.409927368164062,-10.064986228942871,47.64172756098259,-122.13968735259793,122.25411224365234,-3.9630260467529297,10.610143661499023,0.005845081061124802
1772180353381934000,0.016372013837099075,0.01897800713777542,0.7684610486030579,-4.5467376708984375,8.112380981445312,-9.972840309143066,47.64173719405573,-122.13969342619,122.25479888916016,-4.589810848236084,9.856654167175293,0.007196308113634586
1772180353407805000,0.016374554485082626,0.018222324550151825,0.7159655690193176,-4.003815650939941,7.6016950607299805,-10.005229949951172,47.64173719405573,-122.13969342619,122.25479888916016,-4.589810848236084,9.856654167175293,0.007196308113634586
1772180353433386000,0.013806517235934734,0.01983628422021866,0.7469207644462585,-3.944199323654175,7.331968307495117,-10.037591934204102,47.64173719405573,-122.13969342619,122.25479888916016,-4.589810848236084,9.856654167175293,0.007196308113634586
1772180353433386000,0.013806517235934734,0.01983628422021866,0.7469207644462585,-3.944199323654175,7.331968307495117,-10.037591934204102,47.64173719405573,-122.13969342619,122.25479888916016,-4.589810848236084,9.856654167175293,0.007196308113634586
1772180353458702000,-0.003651919774711132,0.015216747298836708,0.7228407859802246,7.651727199554443,2.8947460651397705,-10.2131986618042,47.64173719405573,-122.13969342619,122.25479888916016,-4.589810848236084,9.856654167175293,0.007196308113634586
1772180353482981000,-0.04244526848196983,0.006866765208542347,0.6919875144958496,9.645755767822266,-0.40656960010528564,-10.023577690124512,47.641746066604014,-122.13970019374759,122.25470733642578,-5.191666126251221,9.766350746154785,-0.004641229286789894
1772180353508156000,-0.07098029553890228,-0.004947304259985685,0.6426622867584229,9.331757545471191,-0.20025265216827393,-9.971656799316406,47.641746066604014,-122.13970019374759,122.25470733642578,-5.191666126251221,9.766350746154785,-0.004641229286789894
1772180353533546000,-0.0843128189444542,-0.008537602610886097,0.6580729484558105,10.106583595275879,1.4864689111709595,-9.900014877319336,47.641746066604014,-122.13970019374759,122.25470733642578,-5.191666126251221,9.766350746154785,-0.004641229286789894
1772180353546430000,-0.07602863758802414,-0.009753421880304813,0.6035659909248352,9.437115669250488,2.017941474914551,-9.800195693969727,47.641746066604014,-122.13970019374759,122.25470733642578,-5.191666126251221,9.766350746154785,-0.004641229286789894
1772180353570748000,-0.0683048665523529,-0.009429124183952808,0.6073712110519409,9.854588508605957,3.1770567893981934,-9.795938491821289,47.641746066604014,-122.13970019374759,122.25470733642578,-5.191666126251221,9.766350746154785,-0.004641229286789894
1772180353588144000,-0.06465332210063934,-0.007768544834107161,0.6273614764213562,10.395108222961426,3.8157949447631836,-9.824971199035645,47.64175529514386,-122.13970755233808,122.25447845458984,-5.841714859008789,10.54736042022705,-0.0060997335240244865
1772180353608290000,-0.044593695551157,-0.005993445869535208,0.5762127637863159,9.77721118927002,4.378077030181885,-9.81071949005127,47.64175529514386,-122.13970755233808,122.25447845458984,-5.841714859008789,10.54736042022705,-0.0060997335240244865
1772180353633466000,-0.028438925743103027,-0.0017115473747253418,0.5537014007568359,9.789773941040039,4.90322732925415,-9.844097137451172,47.64175529514386,-122.13970755233808,122.25447845458984,-5.841714859008789,10.54736042022705,-0.0060997335240244865
1772180353653046000,-0.017964385449886322,-0.0005461903638206422,0.46250030398368835,8.336219787597656,4.289954662322998,-9.840093612670898,47.64175529514386,-122.13970755233808,122.25447845458984,-5.841714859008789,10.54736042022705,-0.0060997335240244865
1772180353672085000,-0.006450455170124769,0.004141863435506821,0.5257595181465149,9.909684181213379,5.469261646270752,-9.866453170776367,47.64175529514386,-122.13970755233808,122.25447845458984,-5.841714859008789,10.54736042022705,-0.0060997335240244865
1772180353691722000,-1.5967067156452686e-05,0.0044491710141301155,0.49489760398864746,9.592018127441406,5.364011764526367,-9.906585693359375,47.64176515348103,-122.13971610732894,122.2540512084961,-6.756520748138428,11.068687438964844,0.00141066312789917
1772180353709294000,0.011152763850986958,0.008874299935996532,0.4852413833141327,9.63053035736084,6.0207061767578125,-9.916892051696777,47.64176515348103,-122.13971610732894,122.2540512084961,-6.756520748138428,11.068687438964844,0.00141066312789917
1772180353734219000,0.019558735191822052,0.01063091866672039,0.4463217854499817,9.191328048706055,5.976109027862549,-9.893741607666016,47.64176515348103,-122.13971610732894,122.2540512084961,-6.756520748138428,11.068687438964844,0.00141066312789917
1772180353746192000,0.019299063831567764,0.010289539583027363,0.37304604053497314,7.9939446449279785,5.002674579620361,-9.925156593322754,47.64176515348103,-122.13971610732894,122.2540512084961,-6.756520748138428,11.068687438964844,0.00141066312789917
1772180353772742000,0.023007595911622047,0.01121601928025484,0.3470112383365631,7.807155132293701,4.990237712860107,-9.920193672180176,47.64176515348103,-122.13971610732894,122.2540512084961,-6.756520748138428,11.068687438964844,0.00141066312789917
1772180353784714000,0.026594175025820732,0.013917403295636177,0.360474169254303,8.271878242492676,5.484502792358398,-9.935829162597656,47.64176515348103,-122.13971610732894,122.2540512084961,-6.756520748138428,11.068687438964844,0.00141066312789917
1772180353810048000,0.02266904152929783,0.011499784886837006,0.3111092448234558,7.718896865844727,4.953123569488525,-9.99527645111084,47.64177660898343,-122.13972718241364,122.25456237792969,-7.844184875488281,11.490049362182617,0.002079770667478442
1772180353823597000,0.03108825534582138,0.014453193172812462,0.3665411174297333,9.236226081848145,6.119256019592285,-9.965392112731934,47.64177660898343,-122.13972718241364,122.25456237792969,-7.844184875488281,11.490049362182617,0.002079770667478442
1772180353854939000,0.02819395810365677,0.015264359302818775,0.3269748091697693,8.719555854797363,5.827419757843018,-9.98131275177002,47.64177660898343,-122.13972718241364,122.25456237792969,-7.844184875488281,11.490049362182617,0.002079770667478442
1772180353872483000,0.024827782064676285,0.014348713681101799,0.2944333553314209,8.519468307495117,5.492281913757324,-9.93002986907959,47.64177660898343,-122.13972718241364,122.25456237792969,-7.844184875488281,11.490049362182617,0.002079770667478442
1772180353884759000,0.022769317030906677,0.012459087185561657,0.2668668329715729,7.9472246170043945,5.122410774230957,-9.96259880065918,47.64177660898343,-122.13972718241364,122.25456237792969,-7.844184875488281,11.490049362182617,0.002079770667478442
1772180353915995000,0.02154187671840191,0.013283099047839642,0.2585018575191498,8.262812614440918,5.238099575042725,-9.982276916503906,47.641788361826386,-122.13973979116001,122.25434112548828,-8.901938438415527,11.839513778686523,-0.0014244556659832597
1772180353934811000,0.01860741525888443,0.013048422522842884,0.2689375579357147,9.295309066772461,5.813414573669434,-10.002705574035645,47.641788361826386,-122.13973979116001,122.25434112548828,-8.901938438415527,11.839513778686523,-0.0014244556659832597
1772180353947494000,0.012004425749182701,0.009273708797991276,0.2030167579650879,7.568866729736328,4.2088623046875,-9.945291519165039,47.641788361826386,-122.13973979116001,122.25434112548828,-8.901938438415527,11.839513778686523,-0.0014244556659832597
1772180353973239000,0.009821848943829536,0.008953572250902653,0.18546374142169952,6.280265808105469,4.697649002075195,-9.980799674987793,47.641788361826386,-122.13973979116001,122.25434112548828,-8.901938438415527,11.839513778686523,-0.0014244556659832597
1772180353985867000,0.013751638121902943,0.012406036257743835,0.1950661540031433,4.565403938293457,5.6658735275268555,-9.996766090393066,47.641788361826386,-122.13973979116001,122.25434112548828,-8.901938438415527,11.839513778686523,-0.0014244556659832597
1772180354015527000,0.016986075788736343,0.013399694114923477,0.14655569195747375,0.8684309720993042,4.416722297668457,-10.020655632019043,47.641788361826386,-122.13973979116001,122.25434112548828,-8.901938438415527,11.839513778686523,-0.0014244556659832597
1772180354035893000,0.01482501719146967,0.015278984792530537,0.12833204865455627,-0.5192862749099731,3.5327231884002686,-10.02934741973877,47.641800697566,-122.13975421511165,122.25394439697266,-9.714506149291992,11.916526794433594,-0.008888518437743187
1772180354054723000,0.0157463438808918,0.01851031556725502,0.14752493798732758,-1.1722978353500366,4.000128746032715,-10.054473876953125,47.641800697566,-122.13975421511165,122.25394439697266,-9.714506149291992,11.916526794433594,-0.008888518437743187
1772180354072953000,0.010064411908388138,0.019855782389640808,0.1301576793193817,-2.1874477863311768,3.2751235961914062,-10.045743942260742,47.641800697566,-122.13975421511165,122.25394439697266,-9.714506149291992,11.916526794433594,-0.008888518437743187
1772180354084991000,-0.00526130897924304,0.015024079941213131,0.10231639444828033,-2.6131742000579834,2.602116584777832,-9.722411155700684,47.641800697566,-122.13975421511165,122.25394439697266,-9.714506149291992,11.916526794433594,-0.008888518437743187
1772180354110510000,-0.03838842362165451,0.008888652548193932,0.07350091636180878,-3.018305540084839,2.2555911540985107,-9.817718505859375,47.641800697566,-122.13975421511165,122.25394439697266,-9.714506149291992,11.916526794433594,-0.008888518437743187
1772180354135927000,-0.04644785821437836,0.007641443982720375,0.05653878673911095,-3.3727309703826904,1.7813665866851807,-9.891648292541504,47.641811036588,-122.13976703875562,122.25281524658203,-9.808755874633789,11.549447059631348,-0.011628738604485989
1772180354148461000,-0.05288856104016304,0.00964999571442604,0.05889272317290306,-3.898071527481079,1.833897590637207,-9.886247634887695,47.641811036588,-122.13976703875562,122.25281524658203,-9.808755874633789,11.549447059631348,-0.011628738604485989
1772180354173940000,-0.06569141894578934,0.01636056788265705,0.04284103587269783,-12.254505157470703,-0.14298343658447266,-9.768783569335938,47.641811036588,-122.13976703875562,122.25281524658203,-9.808755874633789,11.549447059631348,-0.011628738604485989
1772180354185915000,-0.07026432454586029,0.0177488774061203,0.03389030694961548,-11.07844352722168,-0.13463521003723145,-9.784063339233398,47.641811036588,-122.13976703875562,122.25281524658203,-9.808755874633789,11.549447059631348,-0.011628738604485989
1772180354211551000,-0.08999820798635483,0.027460522949695587,0.031101806089282036,-11.301480293273926,-0.21854309737682343,-9.713969230651855,47.641811036588,-122.13976703875562,122.25281524658203,-9.808755874633789,11.549447059631348,-0.011628738604485989
1772180354223543000,-0.09822159260511398,0.02875262126326561,0.02799230068922043,-11.348051071166992,-0.18281549215316772,-9.740861892700195,47.641811036588,-122.13976703875562,122.25281524658203,-9.808755874633789,11.549447059631348,-0.011628738604485989
1772180354248475000,-0.10819707065820694,0.03351597487926483,0.02472826838493347,-11.44009017944336,-0.2001020610332489,-9.71662712097168,47.64182243583834,-122.13978148912842,122.25144958496094,-9.183513641357422,10.724365234375,-0.0074446541257202625
1772180354272974000,-0.11729811877012253,0.03998896852135658,0.022052278742194176,-12.025500297546387,-0.1260625272989273,-9.732369422912598,47.64182243583834,-122.13978148912842,122.25144958496094,-9.183513641357422,10.724365234375,-0.0074446541257202625
1772180354298445000,-0.1124177947640419,0.04000142961740494,0.020420756191015244,-11.74182415008545,-0.029511697590351105,-9.694686889648438,47.64182243583834,-122.13978148912842,122.25144958496094,-9.183513641357422,10.724365234375,-0.0074446541257202625
1772180354312012000,-0.10505715757608414,0.03820836544036865,0.018535099923610687,-11.054647445678711,0.013046491891145706,-9.728500366210938,47.64182243583834,-122.13978148912842,122.25144958496094,-9.183513641357422,10.724365234375,-0.0074446541257202625
1772180354324099000,-0.10459300875663757,0.03974867984652519,0.01864178106188774,-11.328927040100098,0.05356135591864586,-9.756012916564941,47.64182243583834,-122.13978148912842,122.25144958496094,-9.183513641357422,10.724365234375,-0.0074446541257202625
1772180354350896000,-0.02264435589313507,0.02294921688735485,0.011252282187342644,-13.735406875610352,-0.6240383386611938,-8.658186912536621,47.64183167336819,-122.13979316615719,122.25155639648438,-8.397093772888184,9.827719688415527,0.007313332986086607
1772180354377669000,-0.0005006380379199982,0.020751256495714188,0.0010267338948324323,-12.56937026977539,-0.03259453922510147,-9.806408882141113,47.64183167336819,-122.13979316615719,122.25155639648438,-8.397093772888184,9.827719688415527,0.007313332986086607
1772180354390520000,-0.0002850607270374894,0.019253788515925407,0.0008920372929424047,-13.013912200927734,0.03581331670284271,-9.937030792236328,47.64183167336819,-122.13979316615719,122.25155639648438,-8.397093772888184,9.827719688415527,0.007313332986086607
1772180354417111000,-0.00025762454606592655,0.01606224849820137,-0.000348620000295341,-11.4492769241333,0.09239019453525543,-9.893855094909668,47.64183167336819,-122.13979316615719,122.25155639648438,-8.397093772888184,9.827719688415527,0.007313332986086607
1772180354430946000,0.001006335485726595,0.016816873103380203,2.7790621970780194e-05,-11.466751098632812,0.07928076386451721,-9.945416450500488,47.64183167336819,-122.13979316615719,122.25155639648438,-8.397093772888184,9.827719688415527,0.007313332986086607
1772180354455366000,0.0006836880347691476,0.015832556411623955,-0.0071633197367191315,-10.661595344543457,1.0687363147735596,-9.975921630859375,47.6418404444372,-122.13980425402792,122.2543716430664,-7.552881717681885,8.872499465942383,0.023473061621189117
1772180354474151000,-0.0006088493391871452,0.01416270062327385,-0.022274240851402283,-8.178366661071777,-0.7023267149925232,-10.035724639892578,47.6418404444372,-122.13980425402792,122.2543716430664,-7.552881717681885,8.872499465942383,0.023473061621189117
1772180354492892000,0.0009184719529002905,0.014445201493799686,-0.07998412102460861,-8.710237503051758,-3.4812095165252686,-10.004768371582031,47.6418404444372,-122.13980425402792,122.2543716430664,-7.552881717681885,8.872499465942383,0.023473061621189117
1772180354518255000,0.0017797129694372416,0.011636056005954742,-0.13777689635753632,-7.338893413543701,-4.517242431640625,-10.033934593200684,47.6418404444372,-122.13980425402792,122.2543716430664,-7.552881717681885,8.872499465942383,0.023473061621189117
1772180354532428000,0.0003457427374087274,0.004828236997127533,-0.1332211196422577,-5.236798286437988,-3.6744019985198975,-10.016307830810547,47.6418404444372,-122.13980425402792,122.2543716430664,-7.552881717681885,8.872499465942383,0.023473061621189117
1772180354559442000,-0.0036196273285895586,0.0021576203871518373,-0.23157934844493866,-5.415551662445068,-4.673769474029541,-9.996843338012695,47.641848242221606,-122.13981392109223,122.2555160522461,-6.852903842926025,8.474555969238281,0.008015268482267857
1772180354572580000,-0.006427160929888487,0.0010325787588953972,-0.3036084473133087,-5.646689414978027,-5.336162567138672,-10.004524230957031,47.641848242221606,-122.13981392109223,122.2555160522461,-6.852903842926025,8.474555969238281,0.008015268482267857
1772180354597492000,-0.01151208858937025,-0.0032556159421801567,-0.3706217408180237,-5.099557876586914,-5.283992290496826,-10.002472877502441,47.641848242221606,-122.13981392109223,122.2555160522461,-6.852903842926025,8.474555969238281,0.008015268482267857
1772180354611822000,-0.012223459780216217,-0.0040399362333118916,-0.36820390820503235,-4.544581413269043,-4.849846363067627,-9.9404935836792,47.641848242221606,-122.13981392109223,122.2555160522461,-6.852903842926025,8.474555969238281,0.008015268482267857
1772180354636437000,-0.022815808653831482,-0.010535714216530323,-0.5369550585746765,-5.550314903259277,-6.154684066772461,-9.967133522033691,47.641848242221606,-122.13981392109223,122.2555160522461,-6.852903842926025,8.474555969238281,0.008015268482267857
1772180354656696000,-0.019895702600479126,-0.010030408389866352,-0.47512882947921753,-4.532983779907227,-5.287505626678467,-9.930532455444336,47.64185624733046,-122.13982298035769,122.25593566894531,-6.111450672149658,8.40782642364502,-0.0035866659600287676
1772180354661019000,-0.021744143217802048,-0.011084120720624924,-0.4839307367801666,-4.2441182136535645,-5.109278202056885,-9.92162036895752,47.64185624733046,-122.13982298035769,122.25593566894531,-6.111450672149658,8.40782642364502,-0.0035866659600287676
1772180354699381000,-0.035555317997932434,-0.015695419162511826,-0.6050019264221191,-4.180480480194092,-6.3306403160095215,-9.884870529174805,47.64185624733046,-122.13982298035769,122.25593566894531,-6.111450672149658,8.40782642364502,-0.0035866659600287676
1772180354712378000,-0.036647140979766846,-0.015522344969213009,-0.5541709065437317,-3.6819701194763184,-5.707489013671875,-9.890986442565918,47.64185624733046,-122.13982298035769,122.25593566894531,-6.111450672149658,8.40782642364502,-0.0035866659600287676
1772180354740000000,-0.050149012356996536,-0.020873835310339928,-0.6326360702514648,-3.786910057067871,-6.291772842407227,-9.904589653015137,47.64185624733046,-122.13982298035769,122.25593566894531,-6.111450672149658,8.40782642364502,-0.0035866659600287676
1772180354760175000,-0.0635375827550888,-0.025317279621958733,-0.7439413666725159,-4.226193428039551,-7.322839260101318,-9.917494773864746,47.641864016541355,-122.13983073407515,122.25504302978516,-5.321810722351074,8.440786361694336,-0.007253391668200493
1772180354778734000,-0.07164739072322845,-0.02597876824438572,-0.7826159596443176,-4.058599948883057,-7.617733955383301,-9.90965461730957,47.641864016541355,-122.13983073407515,122.25504302978516,-5.321810722351074,8.440786361694336,-0.007253391668200493
1772180354791307000,-0.08161358535289764,-0.028201984241604805,-0.8782386779785156,-4.449307441711426,-8.510686874389648,-9.918859481811523,47.641864016541355,-122.13983073407515,122.25504302978516,-5.321810722351074,8.440786361694336,-0.007253391668200493
1772180354816007000,-0.07290246337652206,-0.02373565174639225,-0.7464151382446289,-3.5976688861846924,-7.0781941413879395,-9.90572452545166,47.641864016541355,-122.13983073407515,122.25504302978516,-5.321810722351074,8.440786361694336,-0.007253391668200493
1772180354841296000,-0.07409533113241196,-0.02288658171892166,-0.7574801445007324,-3.468722105026245,-7.095071315765381,-9.939217567443848,47.641864016541355,-122.13983073407515,122.25504302978516,-5.321810722351074,8.440786361694336,-0.007253391668200493
1772180354853625000,-0.08207577466964722,-0.02464401163160801,-0.8262991309165955,-3.7309014797210693,-7.756576061248779,-9.939602851867676,47.641864016541355,-122.13983073407515,122.25504302978516,-5.321810722351074,8.440786361694336,-0.007253391668200493
